submission_id,QUD,RT,age,comments,condition,education,endTime,evidence,evidencepic,experiment_id,gender,languages,order,question,response,startDate,startTime,timeSpent,trial_name,trial_number
3210,,8534,27,,teammate,Graduated High School,1630312431844,A teammate has left you this evidence:,study_images/Helpful3.png,284,male,,study_images/Decoy32.pngDecoy2|study_images/Lure3.pngLure|study_images/Truth3.pngTruth|study_images/Decoy31.pngDecoy1,Choose a map.,Truth,Mon Aug 30 2021 10:30:15 GMT+0200 (Central European Summer Time),1630312215607,3.60395,teammate_block_practice,1
3210,,2299,27,,teammate,Graduated High School,1630312431844,A teammate has left you this evidence:,study_images/Misleading4_0.png,284,male,,study_images/Decoy42.pngDecoy2|study_images/Lure4.pngLure|study_images/Truth4.pngTruth|study_images/Decoy41.pngDecoy1,Choose a map.,Lure,Mon Aug 30 2021 10:30:15 GMT+0200 (Central European Summer Time),1630312215607,3.60395,teammate_block_practice,2
3210,,2085,27,,teammate,Graduated High School,1630312431844,A teammate has left you this evidence:,study_images/Helpful4.png,284,male,,study_images/Decoy41.pngDecoy1|study_images/Decoy42.pngDecoy2|study_images/Truth4.pngTruth|study_images/Lure4.pngLure,Choose a map.,Truth,Mon Aug 30 2021 10:30:15 GMT+0200 (Central European Summer Time),1630312215607,3.60395,teammate_block_practice,3
3210,,5127,27,,teammate,Graduated High School,1630312431844,A teammate has left you this evidence:,study_images/Uninformative5.png,284,male,,study_images/Lure5.pngLure|study_images/Decoy51.pngDecoy1|study_images/Truth5.pngTruth|study_images/Decoy52.pngDecoy2,Choose a map.,Decoy1,Mon Aug 30 2021 10:30:15 GMT+0200 (Central European Summer Time),1630312215607,3.60395,teammate_block_practice,4
3210,,2854,27,,opponent,Graduated High School,1630312431844,An opponent has left you this evidence:,study_images/Misleading2_25.png,284,male,,study_images/Decoy22.pngDecoy2|study_images/Lure2.pngLure|study_images/Truth2.pngTruth|study_images/Decoy21.pngDecoy1,Choose a map.,Lure,Mon Aug 30 2021 10:30:15 GMT+0200 (Central European Summer Time),1630312215607,3.60395,opponent_block_practice,1
3210,,2445,27,,opponent,Graduated High School,1630312431844,An opponent has left you this evidence:,study_images/Uninformative6.png,284,male,,study_images/Decoy61.pngDecoy1|study_images/Lure6.pngLure|study_images/Decoy62.pngDecoy2|study_images/Truth6.pngTruth,Choose a map.,Lure,Mon Aug 30 2021 10:30:15 GMT+0200 (Central European Summer Time),1630312215607,3.60395,opponent_block_practice,2
3210,,4038,27,,opponent,Graduated High School,1630312431844,An opponent has left you this evidence:,study_images/Uninformative4.png,284,male,,study_images/Truth4.pngTruth|study_images/Decoy42.pngDecoy2|study_images/Lure4.pngLure|study_images/Decoy41.pngDecoy1,Choose a map.,Lure,Mon Aug 30 2021 10:30:15 GMT+0200 (Central European Summer Time),1630312215607,3.60395,opponent_block_practice,3
3210,,2862,27,,opponent,Graduated High School,1630312431844,An opponent has left you this evidence:,study_images/Helpful1.png,284,male,,study_images/Decoy12.pngDecoy2|study_images/Decoy11.pngDecoy1|study_images/Lure1.pngLure|study_images/Truth1.pngTruth,Choose a map.,Truth,Mon Aug 30 2021 10:30:15 GMT+0200 (Central European Summer Time),1630312215607,3.60395,opponent_block_practice,4
3210,,8901,27,,opponent,Graduated High School,1630312431844,An opponent has left you this evidence:,study_images/Helpful5.png,284,male,,study_images/Truth5.pngTruth|study_images/Lure5.pngLure|study_images/Decoy52.pngDecoy2|study_images/Decoy51.pngDecoy1,Choose a map.,Truth,Mon Aug 30 2021 10:30:15 GMT+0200 (Central European Summer Time),1630312215607,3.60395,opponent_block_main,1
3210,,6376,27,,opponent,Graduated High School,1630312431844,An opponent has left you this evidence:,study_images/Uninformative3.png,284,male,,study_images/Lure3.pngLure|study_images/Decoy32.pngDecoy2|study_images/Truth3.pngTruth|study_images/Decoy31.pngDecoy1,Choose a map.,Decoy2,Mon Aug 30 2021 10:30:15 GMT+0200 (Central European Summer Time),1630312215607,3.60395,opponent_block_main,2
3210,,5564,27,,opponent,Graduated High School,1630312431844,An opponent has left you this evidence:,study_images/Misleading2_25.png,284,male,,study_images/Lure2.pngLure|study_images/Truth2.pngTruth|study_images/Decoy21.pngDecoy1|study_images/Decoy22.pngDecoy2,Choose a map.,Decoy2,Mon Aug 30 2021 10:30:15 GMT+0200 (Central European Summer Time),1630312215607,3.60395,opponent_block_main,3
3210,,5702,27,,opponent,Graduated High School,1630312431844,An opponent has left you this evidence:,study_images/Uninformative2.png,284,male,,study_images/Decoy22.pngDecoy2|study_images/Decoy21.pngDecoy1|study_images/Truth2.pngTruth|study_images/Lure2.pngLure,Choose a map.,Decoy2,Mon Aug 30 2021 10:30:15 GMT+0200 (Central European Summer Time),1630312215607,3.60395,opponent_block_main,4
3210,,8799,27,,opponent,Graduated High School,1630312431844,An opponent has left you this evidence:,study_images/Misleading4_0.png,284,male,,study_images/Decoy42.pngDecoy2|study_images/Decoy41.pngDecoy1|study_images/Truth4.pngTruth|study_images/Lure4.pngLure,Choose a map.,Lure,Mon Aug 30 2021 10:30:15 GMT+0200 (Central European Summer Time),1630312215607,3.60395,opponent_block_main,5
3210,,3188,27,,opponent,Graduated High School,1630312431844,An opponent has left you this evidence:,study_images/Helpful1.png,284,male,,study_images/Decoy11.pngDecoy1|study_images/Lure1.pngLure|study_images/Truth1.pngTruth|study_images/Decoy12.pngDecoy2,Choose a map.,Truth,Mon Aug 30 2021 10:30:15 GMT+0200 (Central European Summer Time),1630312215607,3.60395,opponent_block_main,6
3210,,3196,27,,opponent,Graduated High School,1630312431844,An opponent has left you this evidence:,study_images/Helpful6.png,284,male,,study_images/Decoy62.pngDecoy2|study_images/Truth6.pngTruth|study_images/Decoy61.pngDecoy1|study_images/Lure6.pngLure,Choose a map.,Truth,Mon Aug 30 2021 10:30:15 GMT+0200 (Central European Summer Time),1630312215607,3.60395,opponent_block_main,7
3210,,12264,27,,opponent,Graduated High School,1630312431844,An opponent has left you this evidence:,study_images/Uninformative1.png,284,male,,study_images/Decoy11.pngDecoy1|study_images/Decoy12.pngDecoy2|study_images/Truth1.pngTruth|study_images/Lure1.pngLure,Choose a map.,Truth,Mon Aug 30 2021 10:30:15 GMT+0200 (Central European Summer Time),1630312215607,3.60395,opponent_block_main,8
3210,,4498,27,,opponent,Graduated High School,1630312431844,An opponent has left you this evidence:,study_images/Misleading5_50.png,284,male,,study_images/Decoy52.pngDecoy2|study_images/Lure5.pngLure|study_images/Truth5.pngTruth|study_images/Decoy51.pngDecoy1,Choose a map.,Lure,Mon Aug 30 2021 10:30:15 GMT+0200 (Central European Summer Time),1630312215607,3.60395,opponent_block_main,9
3210,,6384,27,,opponent,Graduated High School,1630312431844,An opponent has left you this evidence:,study_images/Misleading6_0.png,284,male,,study_images/Decoy62.pngDecoy2|study_images/Truth6.pngTruth|study_images/Decoy61.pngDecoy1|study_images/Lure6.pngLure,Choose a map.,Decoy2,Mon Aug 30 2021 10:30:15 GMT+0200 (Central European Summer Time),1630312215607,3.60395,opponent_block_main,10
3210,,3446,27,,opponent,Graduated High School,1630312431844,An opponent has left you this evidence:,study_images/Misleading1_50.png,284,male,,study_images/Decoy12.pngDecoy2|study_images/Truth1.pngTruth|study_images/Decoy11.pngDecoy1|study_images/Lure1.pngLure,Choose a map.,Truth,Mon Aug 30 2021 10:30:15 GMT+0200 (Central European Summer Time),1630312215607,3.60395,opponent_block_main,11
3210,,3607,27,,opponent,Graduated High School,1630312431844,An opponent has left you this evidence:,study_images/Helpful3.png,284,male,,study_images/Truth3.pngTruth|study_images/Lure3.pngLure|study_images/Decoy32.pngDecoy2|study_images/Decoy31.pngDecoy1,Choose a map.,Truth,Mon Aug 30 2021 10:30:15 GMT+0200 (Central European Summer Time),1630312215607,3.60395,opponent_block_main,12
3210,,2744,27,,opponent,Graduated High School,1630312431844,An opponent has left you this evidence:,study_images/Helpful2.png,284,male,,study_images/Decoy21.pngDecoy1|study_images/Decoy22.pngDecoy2|study_images/Truth2.pngTruth|study_images/Lure2.pngLure,Choose a map.,Truth,Mon Aug 30 2021 10:30:15 GMT+0200 (Central European Summer Time),1630312215607,3.60395,opponent_block_main,13
3210,,3012,27,,opponent,Graduated High School,1630312431844,An opponent has left you this evidence:,study_images/Uninformative6.png,284,male,,study_images/Lure6.pngLure|study_images/Truth6.pngTruth|study_images/Decoy62.pngDecoy2|study_images/Decoy61.pngDecoy1,Choose a map.,Lure,Mon Aug 30 2021 10:30:15 GMT+0200 (Central European Summer Time),1630312215607,3.60395,opponent_block_main,14
3210,,2486,27,,opponent,Graduated High School,1630312431844,An opponent has left you this evidence:,study_images/Helpful4.png,284,male,,study_images/Lure4.pngLure|study_images/Truth4.pngTruth|study_images/Decoy41.pngDecoy1|study_images/Decoy42.pngDecoy2,Choose a map.,Truth,Mon Aug 30 2021 10:30:15 GMT+0200 (Central European Summer Time),1630312215607,3.60395,opponent_block_main,15
3210,,2796,27,,opponent,Graduated High School,1630312431844,An opponent has left you this evidence:,study_images/Uninformative5.png,284,male,,study_images/Truth5.pngTruth|study_images/Lure5.pngLure|study_images/Decoy52.pngDecoy2|study_images/Decoy51.pngDecoy1,Choose a map.,Lure,Mon Aug 30 2021 10:30:15 GMT+0200 (Central European Summer Time),1630312215607,3.60395,opponent_block_main,16
3210,,2648,27,,opponent,Graduated High School,1630312431844,An opponent has left you this evidence:,study_images/Misleading3_25.png,284,male,,study_images/Truth3.pngTruth|study_images/Lure3.pngLure|study_images/Decoy32.pngDecoy2|study_images/Decoy31.pngDecoy1,Choose a map.,Lure,Mon Aug 30 2021 10:30:15 GMT+0200 (Central European Summer Time),1630312215607,3.60395,opponent_block_main,17
3210,,5352,27,,opponent,Graduated High School,1630312431844,An opponent has left you this evidence:,study_images/Uninformative4.png,284,male,,study_images/Decoy41.pngDecoy1|study_images/Lure4.pngLure|study_images/Decoy42.pngDecoy2|study_images/Truth4.pngTruth,Choose a map.,Lure,Mon Aug 30 2021 10:30:15 GMT+0200 (Central European Summer Time),1630312215607,3.60395,opponent_block_main,18
3210,,2462,27,,teammate,Graduated High School,1630312431844,A teammate has left you this evidence:,study_images/Helpful1.png,284,male,,study_images/Decoy12.pngDecoy2|study_images/Lure1.pngLure|study_images/Decoy11.pngDecoy1|study_images/Truth1.pngTruth,Choose a map.,Truth,Mon Aug 30 2021 10:30:15 GMT+0200 (Central European Summer Time),1630312215607,3.60395,teammate_block_main,1
3210,,5020,27,,teammate,Graduated High School,1630312431844,A teammate has left you this evidence:,study_images/Helpful3.png,284,male,,study_images/Truth3.pngTruth|study_images/Lure3.pngLure|study_images/Decoy31.pngDecoy1|study_images/Decoy32.pngDecoy2,Choose a map.,Truth,Mon Aug 30 2021 10:30:15 GMT+0200 (Central European Summer Time),1630312215607,3.60395,teammate_block_main,2
3210,,2181,27,,teammate,Graduated High School,1630312431844,A teammate has left you this evidence:,study_images/Uninformative1.png,284,male,,study_images/Truth1.pngTruth|study_images/Decoy12.pngDecoy2|study_images/Lure1.pngLure|study_images/Decoy11.pngDecoy1,Choose a map.,Decoy1,Mon Aug 30 2021 10:30:15 GMT+0200 (Central European Summer Time),1630312215607,3.60395,teammate_block_main,3
3210,,2103,27,,teammate,Graduated High School,1630312431844,A teammate has left you this evidence:,study_images/Misleading1_50.png,284,male,,study_images/Decoy11.pngDecoy1|study_images/Lure1.pngLure|study_images/Decoy12.pngDecoy2|study_images/Truth1.pngTruth,Choose a map.,Lure,Mon Aug 30 2021 10:30:15 GMT+0200 (Central European Summer Time),1630312215607,3.60395,teammate_block_main,4
3210,,3528,27,,teammate,Graduated High School,1630312431844,A teammate has left you this evidence:,study_images/Uninformative2.png,284,male,,study_images/Truth2.pngTruth|study_images/Decoy22.pngDecoy2|study_images/Decoy21.pngDecoy1|study_images/Lure2.pngLure,Choose a map.,Decoy2,Mon Aug 30 2021 10:30:15 GMT+0200 (Central European Summer Time),1630312215607,3.60395,teammate_block_main,5
3210,,4140,27,,teammate,Graduated High School,1630312431844,A teammate has left you this evidence:,study_images/Uninformative5.png,284,male,,study_images/Lure5.pngLure|study_images/Decoy52.pngDecoy2|study_images/Decoy51.pngDecoy1|study_images/Truth5.pngTruth,Choose a map.,Decoy1,Mon Aug 30 2021 10:30:15 GMT+0200 (Central European Summer Time),1630312215607,3.60395,teammate_block_main,6
3210,,2746,27,,teammate,Graduated High School,1630312431844,A teammate has left you this evidence:,study_images/Helpful5.png,284,male,,study_images/Decoy51.pngDecoy1|study_images/Decoy52.pngDecoy2|study_images/Lure5.pngLure|study_images/Truth5.pngTruth,Choose a map.,Truth,Mon Aug 30 2021 10:30:15 GMT+0200 (Central European Summer Time),1630312215607,3.60395,teammate_block_main,7
3210,,4541,27,,teammate,Graduated High School,1630312431844,A teammate has left you this evidence:,study_images/Misleading2_25.png,284,male,,study_images/Decoy21.pngDecoy1|study_images/Truth2.pngTruth|study_images/Lure2.pngLure|study_images/Decoy22.pngDecoy2,Choose a map.,Lure,Mon Aug 30 2021 10:30:15 GMT+0200 (Central European Summer Time),1630312215607,3.60395,teammate_block_main,8
3210,,1819,27,,teammate,Graduated High School,1630312431844,A teammate has left you this evidence:,study_images/Misleading3_25.png,284,male,,study_images/Decoy31.pngDecoy1|study_images/Lure3.pngLure|study_images/Truth3.pngTruth|study_images/Decoy32.pngDecoy2,Choose a map.,Lure,Mon Aug 30 2021 10:30:15 GMT+0200 (Central European Summer Time),1630312215607,3.60395,teammate_block_main,9
3210,,3331,27,,teammate,Graduated High School,1630312431844,A teammate has left you this evidence:,study_images/Uninformative6.png,284,male,,study_images/Decoy61.pngDecoy1|study_images/Lure6.pngLure|study_images/Decoy62.pngDecoy2|study_images/Truth6.pngTruth,Choose a map.,Lure,Mon Aug 30 2021 10:30:15 GMT+0200 (Central European Summer Time),1630312215607,3.60395,teammate_block_main,10
3210,,2866,27,,teammate,Graduated High School,1630312431844,A teammate has left you this evidence:,study_images/Misleading4_0.png,284,male,,study_images/Decoy42.pngDecoy2|study_images/Lure4.pngLure|study_images/Truth4.pngTruth|study_images/Decoy41.pngDecoy1,Choose a map.,Lure,Mon Aug 30 2021 10:30:15 GMT+0200 (Central European Summer Time),1630312215607,3.60395,teammate_block_main,11
3210,,4394,27,,teammate,Graduated High School,1630312431844,A teammate has left you this evidence:,study_images/Helpful2.png,284,male,,study_images/Decoy21.pngDecoy1|study_images/Decoy22.pngDecoy2|study_images/Truth2.pngTruth|study_images/Lure2.pngLure,Choose a map.,Truth,Mon Aug 30 2021 10:30:15 GMT+0200 (Central European Summer Time),1630312215607,3.60395,teammate_block_main,12
3210,,5506,27,,teammate,Graduated High School,1630312431844,A teammate has left you this evidence:,study_images/Uninformative4.png,284,male,,study_images/Decoy42.pngDecoy2|study_images/Decoy41.pngDecoy1|study_images/Lure4.pngLure|study_images/Truth4.pngTruth,Choose a map.,Truth,Mon Aug 30 2021 10:30:15 GMT+0200 (Central European Summer Time),1630312215607,3.60395,teammate_block_main,13
3210,,2529,27,,teammate,Graduated High School,1630312431844,A teammate has left you this evidence:,study_images/Misleading6_0.png,284,male,,study_images/Decoy61.pngDecoy1|study_images/Truth6.pngTruth|study_images/Lure6.pngLure|study_images/Decoy62.pngDecoy2,Choose a map.,Lure,Mon Aug 30 2021 10:30:15 GMT+0200 (Central European Summer Time),1630312215607,3.60395,teammate_block_main,14
3210,,2219,27,,teammate,Graduated High School,1630312431844,A teammate has left you this evidence:,study_images/Misleading5_50.png,284,male,,study_images/Lure5.pngLure|study_images/Decoy51.pngDecoy1|study_images/Decoy52.pngDecoy2|study_images/Truth5.pngTruth,Choose a map.,Lure,Mon Aug 30 2021 10:30:15 GMT+0200 (Central European Summer Time),1630312215607,3.60395,teammate_block_main,15
3210,,5378,27,,teammate,Graduated High School,1630312431844,A teammate has left you this evidence:,study_images/Uninformative3.png,284,male,,study_images/Decoy31.pngDecoy1|study_images/Decoy32.pngDecoy2|study_images/Lure3.pngLure|study_images/Truth3.pngTruth,Choose a map.,Truth,Mon Aug 30 2021 10:30:15 GMT+0200 (Central European Summer Time),1630312215607,3.60395,teammate_block_main,16
3210,,2041,27,,teammate,Graduated High School,1630312431844,A teammate has left you this evidence:,study_images/Helpful6.png,284,male,,study_images/Lure6.pngLure|study_images/Decoy61.pngDecoy1|study_images/Decoy62.pngDecoy2|study_images/Truth6.pngTruth,Choose a map.,Truth,Mon Aug 30 2021 10:30:15 GMT+0200 (Central European Summer Time),1630312215607,3.60395,teammate_block_main,17
3210,,1812,27,,teammate,Graduated High School,1630312431844,A teammate has left you this evidence:,study_images/Helpful4.png,284,male,,study_images/Decoy41.pngDecoy1|study_images/Decoy42.pngDecoy2|study_images/Lure4.pngLure|study_images/Truth4.pngTruth,Choose a map.,Truth,Mon Aug 30 2021 10:30:15 GMT+0200 (Central European Summer Time),1630312215607,3.60395,teammate_block_main,18
3209,,11976,27,,teammate,Graduated High School,1630312204893,A teammate has left you this evidence:,study_images/Helpful3.png,284,female,,study_images/Lure3.pngLure|study_images/Truth3.pngTruth|study_images/Decoy32.pngDecoy2|study_images/Decoy31.pngDecoy1,Choose a map.,Truth,Mon Aug 30 2021 10:25:09 GMT+0200 (Central European Summer Time),1630311909238,4.927583333333334,teammate_block_practice,1
3209,,3129,27,,teammate,Graduated High School,1630312204893,A teammate has left you this evidence:,study_images/Misleading4_0.png,284,female,,study_images/Truth4.pngTruth|study_images/Decoy41.pngDecoy1|study_images/Decoy42.pngDecoy2|study_images/Lure4.pngLure,Choose a map.,Lure,Mon Aug 30 2021 10:25:09 GMT+0200 (Central European Summer Time),1630311909238,4.927583333333334,teammate_block_practice,2
3209,,3686,27,,teammate,Graduated High School,1630312204893,A teammate has left you this evidence:,study_images/Uninformative5.png,284,female,,study_images/Lure5.pngLure|study_images/Truth5.pngTruth|study_images/Decoy52.pngDecoy2|study_images/Decoy51.pngDecoy1,Choose a map.,Lure,Mon Aug 30 2021 10:25:09 GMT+0200 (Central European Summer Time),1630311909238,4.927583333333334,teammate_block_practice,3
3209,,3397,27,,teammate,Graduated High School,1630312204893,A teammate has left you this evidence:,study_images/Helpful4.png,284,female,,study_images/Decoy42.pngDecoy2|study_images/Lure4.pngLure|study_images/Decoy41.pngDecoy1|study_images/Truth4.pngTruth,Choose a map.,Truth,Mon Aug 30 2021 10:25:09 GMT+0200 (Central European Summer Time),1630311909238,4.927583333333334,teammate_block_practice,4
3209,,4090,27,,opponent,Graduated High School,1630312204893,An opponent has left you this evidence:,study_images/Helpful1.png,284,female,,study_images/Lure1.pngLure|study_images/Truth1.pngTruth|study_images/Decoy12.pngDecoy2|study_images/Decoy11.pngDecoy1,Choose a map.,Truth,Mon Aug 30 2021 10:25:09 GMT+0200 (Central European Summer Time),1630311909238,4.927583333333334,opponent_block_practice,1
3209,,6018,27,,opponent,Graduated High School,1630312204893,An opponent has left you this evidence:,study_images/Uninformative6.png,284,female,,study_images/Truth6.pngTruth|study_images/Decoy61.pngDecoy1|study_images/Decoy62.pngDecoy2|study_images/Lure6.pngLure,Choose a map.,Decoy2,Mon Aug 30 2021 10:25:09 GMT+0200 (Central European Summer Time),1630311909238,4.927583333333334,opponent_block_practice,2
3209,,11821,27,,opponent,Graduated High School,1630312204893,An opponent has left you this evidence:,study_images/Uninformative4.png,284,female,,study_images/Decoy41.pngDecoy1|study_images/Lure4.pngLure|study_images/Decoy42.pngDecoy2|study_images/Truth4.pngTruth,Choose a map.,Truth,Mon Aug 30 2021 10:25:09 GMT+0200 (Central European Summer Time),1630311909238,4.927583333333334,opponent_block_practice,3
3209,,5023,27,,opponent,Graduated High School,1630312204893,An opponent has left you this evidence:,study_images/Misleading2_25.png,284,female,,study_images/Lure2.pngLure|study_images/Decoy21.pngDecoy1|study_images/Truth2.pngTruth|study_images/Decoy22.pngDecoy2,Choose a map.,Decoy2,Mon Aug 30 2021 10:25:09 GMT+0200 (Central European Summer Time),1630311909238,4.927583333333334,opponent_block_practice,4
3209,,13727,27,,opponent,Graduated High School,1630312204893,An opponent has left you this evidence:,study_images/Uninformative2.png,284,female,,study_images/Decoy22.pngDecoy2|study_images/Lure2.pngLure|study_images/Truth2.pngTruth|study_images/Decoy21.pngDecoy1,Choose a map.,Decoy2,Mon Aug 30 2021 10:25:09 GMT+0200 (Central European Summer Time),1630311909238,4.927583333333334,opponent_block_main,1
3209,,4767,27,,opponent,Graduated High School,1630312204893,An opponent has left you this evidence:,study_images/Uninformative5.png,284,female,,study_images/Decoy52.pngDecoy2|study_images/Lure5.pngLure|study_images/Decoy51.pngDecoy1|study_images/Truth5.pngTruth,Choose a map.,Lure,Mon Aug 30 2021 10:25:09 GMT+0200 (Central European Summer Time),1630311909238,4.927583333333334,opponent_block_main,2
3209,,12544,27,,opponent,Graduated High School,1630312204893,An opponent has left you this evidence:,study_images/Uninformative6.png,284,female,,study_images/Truth6.pngTruth|study_images/Decoy61.pngDecoy1|study_images/Lure6.pngLure|study_images/Decoy62.pngDecoy2,Choose a map.,Decoy2,Mon Aug 30 2021 10:25:09 GMT+0200 (Central European Summer Time),1630311909238,4.927583333333334,opponent_block_main,3
3209,,8472,27,,opponent,Graduated High School,1630312204893,An opponent has left you this evidence:,study_images/Uninformative4.png,284,female,,study_images/Decoy41.pngDecoy1|study_images/Lure4.pngLure|study_images/Truth4.pngTruth|study_images/Decoy42.pngDecoy2,Choose a map.,Lure,Mon Aug 30 2021 10:25:09 GMT+0200 (Central European Summer Time),1630311909238,4.927583333333334,opponent_block_main,4
3209,,2915,27,,opponent,Graduated High School,1630312204893,An opponent has left you this evidence:,study_images/Uninformative3.png,284,female,,study_images/Decoy31.pngDecoy1|study_images/Truth3.pngTruth|study_images/Decoy32.pngDecoy2|study_images/Lure3.pngLure,Choose a map.,Truth,Mon Aug 30 2021 10:25:09 GMT+0200 (Central European Summer Time),1630311909238,4.927583333333334,opponent_block_main,5
3209,,2420,27,,opponent,Graduated High School,1630312204893,An opponent has left you this evidence:,study_images/Helpful5.png,284,female,,study_images/Decoy52.pngDecoy2|study_images/Lure5.pngLure|study_images/Truth5.pngTruth|study_images/Decoy51.pngDecoy1,Choose a map.,Truth,Mon Aug 30 2021 10:25:09 GMT+0200 (Central European Summer Time),1630311909238,4.927583333333334,opponent_block_main,6
3209,,3678,27,,opponent,Graduated High School,1630312204893,An opponent has left you this evidence:,study_images/Helpful3.png,284,female,,study_images/Truth3.pngTruth|study_images/Decoy31.pngDecoy1|study_images/Lure3.pngLure|study_images/Decoy32.pngDecoy2,Choose a map.,Truth,Mon Aug 30 2021 10:25:09 GMT+0200 (Central European Summer Time),1630311909238,4.927583333333334,opponent_block_main,7
3209,,2937,27,,opponent,Graduated High School,1630312204893,An opponent has left you this evidence:,study_images/Misleading4_0.png,284,female,,study_images/Truth4.pngTruth|study_images/Lure4.pngLure|study_images/Decoy42.pngDecoy2|study_images/Decoy41.pngDecoy1,Choose a map.,Lure,Mon Aug 30 2021 10:25:09 GMT+0200 (Central European Summer Time),1630311909238,4.927583333333334,opponent_block_main,8
3209,,2554,27,,opponent,Graduated High School,1630312204893,An opponent has left you this evidence:,study_images/Helpful4.png,284,female,,study_images/Decoy42.pngDecoy2|study_images/Decoy41.pngDecoy1|study_images/Truth4.pngTruth|study_images/Lure4.pngLure,Choose a map.,Truth,Mon Aug 30 2021 10:25:09 GMT+0200 (Central European Summer Time),1630311909238,4.927583333333334,opponent_block_main,9
3209,,2452,27,,opponent,Graduated High School,1630312204893,An opponent has left you this evidence:,study_images/Misleading5_50.png,284,female,,study_images/Decoy52.pngDecoy2|study_images/Lure5.pngLure|study_images/Truth5.pngTruth|study_images/Decoy51.pngDecoy1,Choose a map.,Lure,Mon Aug 30 2021 10:25:09 GMT+0200 (Central European Summer Time),1630311909238,4.927583333333334,opponent_block_main,10
3209,,12600,27,,opponent,Graduated High School,1630312204893,An opponent has left you this evidence:,study_images/Misleading2_25.png,284,female,,study_images/Lure2.pngLure|study_images/Truth2.pngTruth|study_images/Decoy21.pngDecoy1|study_images/Decoy22.pngDecoy2,Choose a map.,Decoy2,Mon Aug 30 2021 10:25:09 GMT+0200 (Central European Summer Time),1630311909238,4.927583333333334,opponent_block_main,11
3209,,19319,27,,opponent,Graduated High School,1630312204893,An opponent has left you this evidence:,study_images/Misleading1_50.png,284,female,,study_images/Lure1.pngLure|study_images/Decoy12.pngDecoy2|study_images/Truth1.pngTruth|study_images/Decoy11.pngDecoy1,Choose a map.,Truth,Mon Aug 30 2021 10:25:09 GMT+0200 (Central European Summer Time),1630311909238,4.927583333333334,opponent_block_main,12
3209,,2646,27,,opponent,Graduated High School,1630312204893,An opponent has left you this evidence:,study_images/Helpful1.png,284,female,,study_images/Truth1.pngTruth|study_images/Decoy11.pngDecoy1|study_images/Decoy12.pngDecoy2|study_images/Lure1.pngLure,Choose a map.,Truth,Mon Aug 30 2021 10:25:09 GMT+0200 (Central European Summer Time),1630311909238,4.927583333333334,opponent_block_main,13
3209,,5134,27,,opponent,Graduated High School,1630312204893,An opponent has left you this evidence:,study_images/Helpful2.png,284,female,,study_images/Decoy22.pngDecoy2|study_images/Truth2.pngTruth|study_images/Lure2.pngLure|study_images/Decoy21.pngDecoy1,Choose a map.,Truth,Mon Aug 30 2021 10:25:09 GMT+0200 (Central European Summer Time),1630311909238,4.927583333333334,opponent_block_main,14
3209,,5142,27,,opponent,Graduated High School,1630312204893,An opponent has left you this evidence:,study_images/Misleading6_0.png,284,female,,study_images/Decoy61.pngDecoy1|study_images/Truth6.pngTruth|study_images/Lure6.pngLure|study_images/Decoy62.pngDecoy2,Choose a map.,Decoy2,Mon Aug 30 2021 10:25:09 GMT+0200 (Central European Summer Time),1630311909238,4.927583333333334,opponent_block_main,15
3209,,6496,27,,opponent,Graduated High School,1630312204893,An opponent has left you this evidence:,study_images/Misleading3_25.png,284,female,,study_images/Decoy31.pngDecoy1|study_images/Truth3.pngTruth|study_images/Decoy32.pngDecoy2|study_images/Lure3.pngLure,Choose a map.,Lure,Mon Aug 30 2021 10:25:09 GMT+0200 (Central European Summer Time),1630311909238,4.927583333333334,opponent_block_main,16
3209,,7379,27,,opponent,Graduated High School,1630312204893,An opponent has left you this evidence:,study_images/Uninformative1.png,284,female,,study_images/Decoy11.pngDecoy1|study_images/Lure1.pngLure|study_images/Truth1.pngTruth|study_images/Decoy12.pngDecoy2,Choose a map.,Lure,Mon Aug 30 2021 10:25:09 GMT+0200 (Central European Summer Time),1630311909238,4.927583333333334,opponent_block_main,17
3209,,3694,27,,opponent,Graduated High School,1630312204893,An opponent has left you this evidence:,study_images/Helpful6.png,284,female,,study_images/Truth6.pngTruth|study_images/Decoy62.pngDecoy2|study_images/Decoy61.pngDecoy1|study_images/Lure6.pngLure,Choose a map.,Truth,Mon Aug 30 2021 10:25:09 GMT+0200 (Central European Summer Time),1630311909238,4.927583333333334,opponent_block_main,18
3209,,3956,27,,teammate,Graduated High School,1630312204893,A teammate has left you this evidence:,study_images/Helpful6.png,284,female,,study_images/Truth6.pngTruth|study_images/Decoy61.pngDecoy1|study_images/Lure6.pngLure|study_images/Decoy62.pngDecoy2,Choose a map.,Truth,Mon Aug 30 2021 10:25:09 GMT+0200 (Central European Summer Time),1630311909238,4.927583333333334,teammate_block_main,1
3209,,2477,27,,teammate,Graduated High School,1630312204893,A teammate has left you this evidence:,study_images/Helpful1.png,284,female,,study_images/Decoy11.pngDecoy1|study_images/Decoy12.pngDecoy2|study_images/Truth1.pngTruth|study_images/Lure1.pngLure,Choose a map.,Truth,Mon Aug 30 2021 10:25:09 GMT+0200 (Central European Summer Time),1630311909238,4.927583333333334,teammate_block_main,2
3209,,3607,27,,teammate,Graduated High School,1630312204893,A teammate has left you this evidence:,study_images/Misleading3_25.png,284,female,,study_images/Lure3.pngLure|study_images/Truth3.pngTruth|study_images/Decoy31.pngDecoy1|study_images/Decoy32.pngDecoy2,Choose a map.,Lure,Mon Aug 30 2021 10:25:09 GMT+0200 (Central European Summer Time),1630311909238,4.927583333333334,teammate_block_main,3
3209,,22707,27,,teammate,Graduated High School,1630312204893,A teammate has left you this evidence:,study_images/Uninformative4.png,284,female,,study_images/Decoy41.pngDecoy1|study_images/Lure4.pngLure|study_images/Truth4.pngTruth|study_images/Decoy42.pngDecoy2,Choose a map.,Lure,Mon Aug 30 2021 10:25:09 GMT+0200 (Central European Summer Time),1630311909238,4.927583333333334,teammate_block_main,4
3209,,4921,27,,teammate,Graduated High School,1630312204893,A teammate has left you this evidence:,study_images/Uninformative1.png,284,female,,study_images/Decoy11.pngDecoy1|study_images/Truth1.pngTruth|study_images/Lure1.pngLure|study_images/Decoy12.pngDecoy2,Choose a map.,Decoy1,Mon Aug 30 2021 10:25:09 GMT+0200 (Central European Summer Time),1630311909238,4.927583333333334,teammate_block_main,5
3209,,5115,27,,teammate,Graduated High School,1630312204893,A teammate has left you this evidence:,study_images/Helpful2.png,284,female,,study_images/Decoy22.pngDecoy2|study_images/Decoy21.pngDecoy1|study_images/Lure2.pngLure|study_images/Truth2.pngTruth,Choose a map.,Truth,Mon Aug 30 2021 10:25:09 GMT+0200 (Central European Summer Time),1630311909238,4.927583333333334,teammate_block_main,6
3209,,11346,27,,teammate,Graduated High School,1630312204893,A teammate has left you this evidence:,study_images/Misleading5_50.png,284,female,,study_images/Truth5.pngTruth|study_images/Decoy51.pngDecoy1|study_images/Lure5.pngLure|study_images/Decoy52.pngDecoy2,Choose a map.,Lure,Mon Aug 30 2021 10:25:09 GMT+0200 (Central European Summer Time),1630311909238,4.927583333333334,teammate_block_main,7
3209,,5544,27,,teammate,Graduated High School,1630312204893,A teammate has left you this evidence:,study_images/Uninformative3.png,284,female,,study_images/Decoy32.pngDecoy2|study_images/Truth3.pngTruth|study_images/Decoy31.pngDecoy1|study_images/Lure3.pngLure,Choose a map.,Decoy2,Mon Aug 30 2021 10:25:09 GMT+0200 (Central European Summer Time),1630311909238,4.927583333333334,teammate_block_main,8
3209,,8030,27,,teammate,Graduated High School,1630312204893,A teammate has left you this evidence:,study_images/Misleading1_50.png,284,female,,study_images/Decoy11.pngDecoy1|study_images/Truth1.pngTruth|study_images/Decoy12.pngDecoy2|study_images/Lure1.pngLure,Choose a map.,Lure,Mon Aug 30 2021 10:25:09 GMT+0200 (Central European Summer Time),1630311909238,4.927583333333334,teammate_block_main,9
3209,,2311,27,,teammate,Graduated High School,1630312204893,A teammate has left you this evidence:,study_images/Helpful5.png,284,female,,study_images/Lure5.pngLure|study_images/Decoy52.pngDecoy2|study_images/Truth5.pngTruth|study_images/Decoy51.pngDecoy1,Choose a map.,Truth,Mon Aug 30 2021 10:25:09 GMT+0200 (Central European Summer Time),1630311909238,4.927583333333334,teammate_block_main,10
3209,,6988,27,,teammate,Graduated High School,1630312204893,A teammate has left you this evidence:,study_images/Uninformative2.png,284,female,,study_images/Lure2.pngLure|study_images/Truth2.pngTruth|study_images/Decoy21.pngDecoy1|study_images/Decoy22.pngDecoy2,Choose a map.,Decoy2,Mon Aug 30 2021 10:25:09 GMT+0200 (Central European Summer Time),1630311909238,4.927583333333334,teammate_block_main,11
3209,,4165,27,,teammate,Graduated High School,1630312204893,A teammate has left you this evidence:,study_images/Helpful3.png,284,female,,study_images/Decoy32.pngDecoy2|study_images/Lure3.pngLure|study_images/Decoy31.pngDecoy1|study_images/Truth3.pngTruth,Choose a map.,Truth,Mon Aug 30 2021 10:25:09 GMT+0200 (Central European Summer Time),1630311909238,4.927583333333334,teammate_block_main,12
3209,,3031,27,,teammate,Graduated High School,1630312204893,A teammate has left you this evidence:,study_images/Misleading2_25.png,284,female,,study_images/Decoy22.pngDecoy2|study_images/Lure2.pngLure|study_images/Truth2.pngTruth|study_images/Decoy21.pngDecoy1,Choose a map.,Lure,Mon Aug 30 2021 10:25:09 GMT+0200 (Central European Summer Time),1630311909238,4.927583333333334,teammate_block_main,13
3209,,1848,27,,teammate,Graduated High School,1630312204893,A teammate has left you this evidence:,study_images/Uninformative5.png,284,female,,study_images/Lure5.pngLure|study_images/Decoy52.pngDecoy2|study_images/Truth5.pngTruth|study_images/Decoy51.pngDecoy1,Choose a map.,Lure,Mon Aug 30 2021 10:25:09 GMT+0200 (Central European Summer Time),1630311909238,4.927583333333334,teammate_block_main,14
3209,,2848,27,,teammate,Graduated High School,1630312204893,A teammate has left you this evidence:,study_images/Misleading4_0.png,284,female,,study_images/Decoy42.pngDecoy2|study_images/Lure4.pngLure|study_images/Decoy41.pngDecoy1|study_images/Truth4.pngTruth,Choose a map.,Lure,Mon Aug 30 2021 10:25:09 GMT+0200 (Central European Summer Time),1630311909238,4.927583333333334,teammate_block_main,15
3209,,2203,27,,teammate,Graduated High School,1630312204893,A teammate has left you this evidence:,study_images/Helpful4.png,284,female,,study_images/Lure4.pngLure|study_images/Decoy42.pngDecoy2|study_images/Decoy41.pngDecoy1|study_images/Truth4.pngTruth,Choose a map.,Truth,Mon Aug 30 2021 10:25:09 GMT+0200 (Central European Summer Time),1630311909238,4.927583333333334,teammate_block_main,16
3209,,6706,27,,teammate,Graduated High School,1630312204893,A teammate has left you this evidence:,study_images/Uninformative6.png,284,female,,study_images/Truth6.pngTruth|study_images/Decoy62.pngDecoy2|study_images/Decoy61.pngDecoy1|study_images/Lure6.pngLure,Choose a map.,Lure,Mon Aug 30 2021 10:25:09 GMT+0200 (Central European Summer Time),1630311909238,4.927583333333334,teammate_block_main,17
3209,,3071,27,,teammate,Graduated High School,1630312204893,A teammate has left you this evidence:,study_images/Misleading6_0.png,284,female,,study_images/Truth6.pngTruth|study_images/Decoy62.pngDecoy2|study_images/Lure6.pngLure|study_images/Decoy61.pngDecoy1,Choose a map.,Lure,Mon Aug 30 2021 10:25:09 GMT+0200 (Central European Summer Time),1630311909238,4.927583333333334,teammate_block_main,18
3208,,5726,26,,opponent,Graduated High School,1630311051418,An opponent has left you this evidence:,study_images/Helpful1.png,284,female,,study_images/Decoy12.pngDecoy2|study_images/Lure1.pngLure|study_images/Decoy11.pngDecoy1|study_images/Truth1.pngTruth,Choose a map.,Truth,Mon Aug 30 2021 10:06:15 GMT+0200 (Central European Summer Time),1630310775849,4.592816666666667,opponent_block_practice,1
3208,,6395,26,,opponent,Graduated High School,1630311051418,An opponent has left you this evidence:,study_images/Uninformative6.png,284,female,,study_images/Lure6.pngLure|study_images/Decoy61.pngDecoy1|study_images/Truth6.pngTruth|study_images/Decoy62.pngDecoy2,Choose a map.,Lure,Mon Aug 30 2021 10:06:15 GMT+0200 (Central European Summer Time),1630310775849,4.592816666666667,opponent_block_practice,2
3208,,4441,26,,opponent,Graduated High School,1630311051418,An opponent has left you this evidence:,study_images/Misleading2_25.png,284,female,,study_images/Decoy21.pngDecoy1|study_images/Lure2.pngLure|study_images/Decoy22.pngDecoy2|study_images/Truth2.pngTruth,Choose a map.,Lure,Mon Aug 30 2021 10:06:15 GMT+0200 (Central European Summer Time),1630310775849,4.592816666666667,opponent_block_practice,3
3208,,8056,26,,opponent,Graduated High School,1630311051418,An opponent has left you this evidence:,study_images/Uninformative4.png,284,female,,study_images/Lure4.pngLure|study_images/Decoy42.pngDecoy2|study_images/Decoy41.pngDecoy1|study_images/Truth4.pngTruth,Choose a map.,Lure,Mon Aug 30 2021 10:06:15 GMT+0200 (Central European Summer Time),1630310775849,4.592816666666667,opponent_block_practice,4
3208,,18465,26,,teammate,Graduated High School,1630311051418,A teammate has left you this evidence:,study_images/Misleading4_0.png,284,female,,study_images/Decoy41.pngDecoy1|study_images/Lure4.pngLure|study_images/Truth4.pngTruth|study_images/Decoy42.pngDecoy2,Choose a map.,Lure,Mon Aug 30 2021 10:06:15 GMT+0200 (Central European Summer Time),1630310775849,4.592816666666667,teammate_block_practice,1
3208,,5870,26,,teammate,Graduated High School,1630311051418,A teammate has left you this evidence:,study_images/Uninformative5.png,284,female,,study_images/Lure5.pngLure|study_images/Truth5.pngTruth|study_images/Decoy52.pngDecoy2|study_images/Decoy51.pngDecoy1,Choose a map.,Lure,Mon Aug 30 2021 10:06:15 GMT+0200 (Central European Summer Time),1630310775849,4.592816666666667,teammate_block_practice,2
3208,,3962,26,,teammate,Graduated High School,1630311051418,A teammate has left you this evidence:,study_images/Helpful3.png,284,female,,study_images/Decoy31.pngDecoy1|study_images/Truth3.pngTruth|study_images/Lure3.pngLure|study_images/Decoy32.pngDecoy2,Choose a map.,Truth,Mon Aug 30 2021 10:06:15 GMT+0200 (Central European Summer Time),1630310775849,4.592816666666667,teammate_block_practice,3
3208,,3386,26,,teammate,Graduated High School,1630311051418,A teammate has left you this evidence:,study_images/Helpful4.png,284,female,,study_images/Decoy42.pngDecoy2|study_images/Truth4.pngTruth|study_images/Lure4.pngLure|study_images/Decoy41.pngDecoy1,Choose a map.,Truth,Mon Aug 30 2021 10:06:15 GMT+0200 (Central European Summer Time),1630310775849,4.592816666666667,teammate_block_practice,4
3208,,3750,26,,teammate,Graduated High School,1630311051418,A teammate has left you this evidence:,study_images/Uninformative5.png,284,female,,study_images/Decoy52.pngDecoy2|study_images/Lure5.pngLure|study_images/Decoy51.pngDecoy1|study_images/Truth5.pngTruth,Choose a map.,Decoy1,Mon Aug 30 2021 10:06:15 GMT+0200 (Central European Summer Time),1630310775849,4.592816666666667,teammate_block_main,1
3208,,2527,26,,teammate,Graduated High School,1630311051418,A teammate has left you this evidence:,study_images/Helpful1.png,284,female,,study_images/Decoy12.pngDecoy2|study_images/Lure1.pngLure|study_images/Truth1.pngTruth|study_images/Decoy11.pngDecoy1,Choose a map.,Truth,Mon Aug 30 2021 10:06:15 GMT+0200 (Central European Summer Time),1630310775849,4.592816666666667,teammate_block_main,2
3208,,2844,26,,teammate,Graduated High School,1630311051418,A teammate has left you this evidence:,study_images/Helpful6.png,284,female,,study_images/Truth6.pngTruth|study_images/Decoy62.pngDecoy2|study_images/Lure6.pngLure|study_images/Decoy61.pngDecoy1,Choose a map.,Truth,Mon Aug 30 2021 10:06:15 GMT+0200 (Central European Summer Time),1630310775849,4.592816666666667,teammate_block_main,3
3208,,3111,26,,teammate,Graduated High School,1630311051418,A teammate has left you this evidence:,study_images/Misleading5_50.png,284,female,,study_images/Decoy52.pngDecoy2|study_images/Decoy51.pngDecoy1|study_images/Lure5.pngLure|study_images/Truth5.pngTruth,Choose a map.,Lure,Mon Aug 30 2021 10:06:15 GMT+0200 (Central European Summer Time),1630310775849,4.592816666666667,teammate_block_main,4
3208,,6224,26,,teammate,Graduated High School,1630311051418,A teammate has left you this evidence:,study_images/Misleading1_50.png,284,female,,study_images/Truth1.pngTruth|study_images/Decoy12.pngDecoy2|study_images/Lure1.pngLure|study_images/Decoy11.pngDecoy1,Choose a map.,Lure,Mon Aug 30 2021 10:06:15 GMT+0200 (Central European Summer Time),1630310775849,4.592816666666667,teammate_block_main,5
3208,,2527,26,,teammate,Graduated High School,1630311051418,A teammate has left you this evidence:,study_images/Misleading6_0.png,284,female,,study_images/Truth6.pngTruth|study_images/Lure6.pngLure|study_images/Decoy62.pngDecoy2|study_images/Decoy61.pngDecoy1,Choose a map.,Lure,Mon Aug 30 2021 10:06:15 GMT+0200 (Central European Summer Time),1630310775849,4.592816666666667,teammate_block_main,6
3208,,3265,26,,teammate,Graduated High School,1630311051418,A teammate has left you this evidence:,study_images/Helpful3.png,284,female,,study_images/Decoy31.pngDecoy1|study_images/Truth3.pngTruth|study_images/Lure3.pngLure|study_images/Decoy32.pngDecoy2,Choose a map.,Truth,Mon Aug 30 2021 10:06:15 GMT+0200 (Central European Summer Time),1630310775849,4.592816666666667,teammate_block_main,7
3208,,3538,26,,teammate,Graduated High School,1630311051418,A teammate has left you this evidence:,study_images/Helpful2.png,284,female,,study_images/Decoy22.pngDecoy2|study_images/Lure2.pngLure|study_images/Truth2.pngTruth|study_images/Decoy21.pngDecoy1,Choose a map.,Truth,Mon Aug 30 2021 10:06:15 GMT+0200 (Central European Summer Time),1630310775849,4.592816666666667,teammate_block_main,8
3208,,3270,26,,teammate,Graduated High School,1630311051418,A teammate has left you this evidence:,study_images/Uninformative2.png,284,female,,study_images/Truth2.pngTruth|study_images/Decoy22.pngDecoy2|study_images/Decoy21.pngDecoy1|study_images/Lure2.pngLure,Choose a map.,Decoy2,Mon Aug 30 2021 10:06:15 GMT+0200 (Central European Summer Time),1630310775849,4.592816666666667,teammate_block_main,9
3208,,2064,26,,teammate,Graduated High School,1630311051418,A teammate has left you this evidence:,study_images/Helpful5.png,284,female,,study_images/Decoy52.pngDecoy2|study_images/Lure5.pngLure|study_images/Decoy51.pngDecoy1|study_images/Truth5.pngTruth,Choose a map.,Truth,Mon Aug 30 2021 10:06:15 GMT+0200 (Central European Summer Time),1630310775849,4.592816666666667,teammate_block_main,10
3208,,2619,26,,teammate,Graduated High School,1630311051418,A teammate has left you this evidence:,study_images/Misleading2_25.png,284,female,,study_images/Lure2.pngLure|study_images/Decoy21.pngDecoy1|study_images/Decoy22.pngDecoy2|study_images/Truth2.pngTruth,Choose a map.,Lure,Mon Aug 30 2021 10:06:15 GMT+0200 (Central European Summer Time),1630310775849,4.592816666666667,teammate_block_main,11
3208,,3947,26,,teammate,Graduated High School,1630311051418,A teammate has left you this evidence:,study_images/Misleading4_0.png,284,female,,study_images/Decoy41.pngDecoy1|study_images/Decoy42.pngDecoy2|study_images/Truth4.pngTruth|study_images/Lure4.pngLure,Choose a map.,Lure,Mon Aug 30 2021 10:06:15 GMT+0200 (Central European Summer Time),1630310775849,4.592816666666667,teammate_block_main,12
3208,,2411,26,,teammate,Graduated High School,1630311051418,A teammate has left you this evidence:,study_images/Misleading3_25.png,284,female,,study_images/Truth3.pngTruth|study_images/Decoy32.pngDecoy2|study_images/Decoy31.pngDecoy1|study_images/Lure3.pngLure,Choose a map.,Lure,Mon Aug 30 2021 10:06:15 GMT+0200 (Central European Summer Time),1630310775849,4.592816666666667,teammate_block_main,13
3208,,4941,26,,teammate,Graduated High School,1630311051418,A teammate has left you this evidence:,study_images/Helpful4.png,284,female,,study_images/Truth4.pngTruth|study_images/Lure4.pngLure|study_images/Decoy42.pngDecoy2|study_images/Decoy41.pngDecoy1,Choose a map.,Truth,Mon Aug 30 2021 10:06:15 GMT+0200 (Central European Summer Time),1630310775849,4.592816666666667,teammate_block_main,14
3208,,3847,26,,teammate,Graduated High School,1630311051418,A teammate has left you this evidence:,study_images/Uninformative4.png,284,female,,study_images/Decoy42.pngDecoy2|study_images/Truth4.pngTruth|study_images/Decoy41.pngDecoy1|study_images/Lure4.pngLure,Choose a map.,Truth,Mon Aug 30 2021 10:06:15 GMT+0200 (Central European Summer Time),1630310775849,4.592816666666667,teammate_block_main,15
3208,,2404,26,,teammate,Graduated High School,1630311051418,A teammate has left you this evidence:,study_images/Uninformative1.png,284,female,,study_images/Truth1.pngTruth|study_images/Lure1.pngLure|study_images/Decoy11.pngDecoy1|study_images/Decoy12.pngDecoy2,Choose a map.,Decoy1,Mon Aug 30 2021 10:06:15 GMT+0200 (Central European Summer Time),1630310775849,4.592816666666667,teammate_block_main,16
3208,,7003,26,,teammate,Graduated High School,1630311051418,A teammate has left you this evidence:,study_images/Uninformative3.png,284,female,,study_images/Lure3.pngLure|study_images/Truth3.pngTruth|study_images/Decoy32.pngDecoy2|study_images/Decoy31.pngDecoy1,Choose a map.,Decoy2,Mon Aug 30 2021 10:06:15 GMT+0200 (Central European Summer Time),1630310775849,4.592816666666667,teammate_block_main,17
3208,,6124,26,,teammate,Graduated High School,1630311051418,A teammate has left you this evidence:,study_images/Uninformative6.png,284,female,,study_images/Decoy61.pngDecoy1|study_images/Truth6.pngTruth|study_images/Lure6.pngLure|study_images/Decoy62.pngDecoy2,Choose a map.,Lure,Mon Aug 30 2021 10:06:15 GMT+0200 (Central European Summer Time),1630310775849,4.592816666666667,teammate_block_main,18
3208,,8956,26,,opponent,Graduated High School,1630311051418,An opponent has left you this evidence:,study_images/Uninformative2.png,284,female,,study_images/Decoy21.pngDecoy1|study_images/Decoy22.pngDecoy2|study_images/Lure2.pngLure|study_images/Truth2.pngTruth,Choose a map.,Decoy2,Mon Aug 30 2021 10:06:15 GMT+0200 (Central European Summer Time),1630310775849,4.592816666666667,opponent_block_main,1
3208,,4589,26,,opponent,Graduated High School,1630311051418,An opponent has left you this evidence:,study_images/Helpful1.png,284,female,,study_images/Truth1.pngTruth|study_images/Lure1.pngLure|study_images/Decoy11.pngDecoy1|study_images/Decoy12.pngDecoy2,Choose a map.,Truth,Mon Aug 30 2021 10:06:15 GMT+0200 (Central European Summer Time),1630310775849,4.592816666666667,opponent_block_main,2
3208,,8714,26,,opponent,Graduated High School,1630311051418,An opponent has left you this evidence:,study_images/Uninformative3.png,284,female,,study_images/Decoy31.pngDecoy1|study_images/Decoy32.pngDecoy2|study_images/Truth3.pngTruth|study_images/Lure3.pngLure,Choose a map.,Truth,Mon Aug 30 2021 10:06:15 GMT+0200 (Central European Summer Time),1630310775849,4.592816666666667,opponent_block_main,3
3208,,4363,26,,opponent,Graduated High School,1630311051418,An opponent has left you this evidence:,study_images/Misleading1_50.png,284,female,,study_images/Decoy11.pngDecoy1|study_images/Lure1.pngLure|study_images/Truth1.pngTruth|study_images/Decoy12.pngDecoy2,Choose a map.,Truth,Mon Aug 30 2021 10:06:15 GMT+0200 (Central European Summer Time),1630310775849,4.592816666666667,opponent_block_main,4
3208,,5749,26,,opponent,Graduated High School,1630311051418,An opponent has left you this evidence:,study_images/Uninformative1.png,284,female,,study_images/Decoy12.pngDecoy2|study_images/Truth1.pngTruth|study_images/Lure1.pngLure|study_images/Decoy11.pngDecoy1,Choose a map.,Lure,Mon Aug 30 2021 10:06:15 GMT+0200 (Central European Summer Time),1630310775849,4.592816666666667,opponent_block_main,5
3208,,4604,26,,opponent,Graduated High School,1630311051418,An opponent has left you this evidence:,study_images/Helpful4.png,284,female,,study_images/Decoy42.pngDecoy2|study_images/Lure4.pngLure|study_images/Decoy41.pngDecoy1|study_images/Truth4.pngTruth,Choose a map.,Truth,Mon Aug 30 2021 10:06:15 GMT+0200 (Central European Summer Time),1630310775849,4.592816666666667,opponent_block_main,6
3208,,4220,26,,opponent,Graduated High School,1630311051418,An opponent has left you this evidence:,study_images/Uninformative6.png,284,female,,study_images/Decoy61.pngDecoy1|study_images/Truth6.pngTruth|study_images/Lure6.pngLure|study_images/Decoy62.pngDecoy2,Choose a map.,Lure,Mon Aug 30 2021 10:06:15 GMT+0200 (Central European Summer Time),1630310775849,4.592816666666667,opponent_block_main,7
3208,,2077,26,,opponent,Graduated High School,1630311051418,An opponent has left you this evidence:,study_images/Misleading5_50.png,284,female,,study_images/Decoy51.pngDecoy1|study_images/Truth5.pngTruth|study_images/Decoy52.pngDecoy2|study_images/Lure5.pngLure,Choose a map.,Lure,Mon Aug 30 2021 10:06:15 GMT+0200 (Central European Summer Time),1630310775849,4.592816666666667,opponent_block_main,8
3208,,6517,26,,opponent,Graduated High School,1630311051418,An opponent has left you this evidence:,study_images/Helpful3.png,284,female,,study_images/Decoy31.pngDecoy1|study_images/Truth3.pngTruth|study_images/Lure3.pngLure|study_images/Decoy32.pngDecoy2,Choose a map.,Truth,Mon Aug 30 2021 10:06:15 GMT+0200 (Central European Summer Time),1630310775849,4.592816666666667,opponent_block_main,9
3208,,5201,26,,opponent,Graduated High School,1630311051418,An opponent has left you this evidence:,study_images/Helpful5.png,284,female,,study_images/Decoy51.pngDecoy1|study_images/Truth5.pngTruth|study_images/Lure5.pngLure|study_images/Decoy52.pngDecoy2,Choose a map.,Truth,Mon Aug 30 2021 10:06:15 GMT+0200 (Central European Summer Time),1630310775849,4.592816666666667,opponent_block_main,10
3208,,9662,26,,opponent,Graduated High School,1630311051418,An opponent has left you this evidence:,study_images/Misleading2_25.png,284,female,,study_images/Truth2.pngTruth|study_images/Decoy22.pngDecoy2|study_images/Lure2.pngLure|study_images/Decoy21.pngDecoy1,Choose a map.,Decoy2,Mon Aug 30 2021 10:06:15 GMT+0200 (Central European Summer Time),1630310775849,4.592816666666667,opponent_block_main,11
3208,,16376,26,,opponent,Graduated High School,1630311051418,An opponent has left you this evidence:,study_images/Helpful2.png,284,female,,study_images/Decoy22.pngDecoy2|study_images/Decoy21.pngDecoy1|study_images/Truth2.pngTruth|study_images/Lure2.pngLure,Choose a map.,Truth,Mon Aug 30 2021 10:06:15 GMT+0200 (Central European Summer Time),1630310775849,4.592816666666667,opponent_block_main,12
3208,,7342,26,,opponent,Graduated High School,1630311051418,An opponent has left you this evidence:,study_images/Uninformative5.png,284,female,,study_images/Truth5.pngTruth|study_images/Decoy51.pngDecoy1|study_images/Decoy52.pngDecoy2|study_images/Lure5.pngLure,Choose a map.,Lure,Mon Aug 30 2021 10:06:15 GMT+0200 (Central European Summer Time),1630310775849,4.592816666666667,opponent_block_main,13
3208,,4824,26,,opponent,Graduated High School,1630311051418,An opponent has left you this evidence:,study_images/Helpful6.png,284,female,,study_images/Lure6.pngLure|study_images/Decoy61.pngDecoy1|study_images/Truth6.pngTruth|study_images/Decoy62.pngDecoy2,Choose a map.,Truth,Mon Aug 30 2021 10:06:15 GMT+0200 (Central European Summer Time),1630310775849,4.592816666666667,opponent_block_main,14
3208,,4391,26,,opponent,Graduated High School,1630311051418,An opponent has left you this evidence:,study_images/Misleading6_0.png,284,female,,study_images/Truth6.pngTruth|study_images/Decoy61.pngDecoy1|study_images/Lure6.pngLure|study_images/Decoy62.pngDecoy2,Choose a map.,Decoy2,Mon Aug 30 2021 10:06:15 GMT+0200 (Central European Summer Time),1630310775849,4.592816666666667,opponent_block_main,15
3208,,3789,26,,opponent,Graduated High School,1630311051418,An opponent has left you this evidence:,study_images/Misleading3_25.png,284,female,,study_images/Truth3.pngTruth|study_images/Decoy31.pngDecoy1|study_images/Lure3.pngLure|study_images/Decoy32.pngDecoy2,Choose a map.,Lure,Mon Aug 30 2021 10:06:15 GMT+0200 (Central European Summer Time),1630310775849,4.592816666666667,opponent_block_main,16
3208,,7569,26,,opponent,Graduated High School,1630311051418,An opponent has left you this evidence:,study_images/Uninformative4.png,284,female,,study_images/Truth4.pngTruth|study_images/Decoy42.pngDecoy2|study_images/Lure4.pngLure|study_images/Decoy41.pngDecoy1,Choose a map.,Lure,Mon Aug 30 2021 10:06:15 GMT+0200 (Central European Summer Time),1630310775849,4.592816666666667,opponent_block_main,17
3208,,9253,26,,opponent,Graduated High School,1630311051418,An opponent has left you this evidence:,study_images/Misleading4_0.png,284,female,,study_images/Truth4.pngTruth|study_images/Decoy41.pngDecoy1|study_images/Decoy42.pngDecoy2|study_images/Lure4.pngLure,Choose a map.,Lure,Mon Aug 30 2021 10:06:15 GMT+0200 (Central European Summer Time),1630310775849,4.592816666666667,opponent_block_main,18
3205,,5125,28,,opponent,,1630307817210,An opponent has left you this evidence:,study_images/Uninformative6.png,284,female,,study_images/Lure6.pngLure|study_images/Decoy62.pngDecoy2|study_images/Decoy61.pngDecoy1|study_images/Truth6.pngTruth,Choose a map.,Lure,Mon Aug 30 2021 09:12:44 GMT+0200 (Central European Summer Time),1630307564175,4.21725,opponent_block_practice,1
3205,,8118,28,,opponent,,1630307817210,An opponent has left you this evidence:,study_images/Uninformative4.png,284,female,,study_images/Lure4.pngLure|study_images/Decoy42.pngDecoy2|study_images/Truth4.pngTruth|study_images/Decoy41.pngDecoy1,Choose a map.,Truth,Mon Aug 30 2021 09:12:44 GMT+0200 (Central European Summer Time),1630307564175,4.21725,opponent_block_practice,2
3205,,2438,28,,opponent,,1630307817210,An opponent has left you this evidence:,study_images/Helpful1.png,284,female,,study_images/Truth1.pngTruth|study_images/Lure1.pngLure|study_images/Decoy12.pngDecoy2|study_images/Decoy11.pngDecoy1,Choose a map.,Truth,Mon Aug 30 2021 09:12:44 GMT+0200 (Central European Summer Time),1630307564175,4.21725,opponent_block_practice,3
3205,,3397,28,,opponent,,1630307817210,An opponent has left you this evidence:,study_images/Misleading2_25.png,284,female,,study_images/Truth2.pngTruth|study_images/Lure2.pngLure|study_images/Decoy21.pngDecoy1|study_images/Decoy22.pngDecoy2,Choose a map.,Lure,Mon Aug 30 2021 09:12:44 GMT+0200 (Central European Summer Time),1630307564175,4.21725,opponent_block_practice,4
3205,,17603,28,,teammate,,1630307817210,A teammate has left you this evidence:,study_images/Misleading4_0.png,284,female,,study_images/Decoy42.pngDecoy2|study_images/Truth4.pngTruth|study_images/Lure4.pngLure|study_images/Decoy41.pngDecoy1,Choose a map.,Lure,Mon Aug 30 2021 09:12:44 GMT+0200 (Central European Summer Time),1630307564175,4.21725,teammate_block_practice,1
3205,,3865,28,,teammate,,1630307817210,A teammate has left you this evidence:,study_images/Helpful3.png,284,female,,study_images/Truth3.pngTruth|study_images/Lure3.pngLure|study_images/Decoy32.pngDecoy2|study_images/Decoy31.pngDecoy1,Choose a map.,Truth,Mon Aug 30 2021 09:12:44 GMT+0200 (Central European Summer Time),1630307564175,4.21725,teammate_block_practice,2
3205,,6758,28,,teammate,,1630307817210,A teammate has left you this evidence:,study_images/Uninformative5.png,284,female,,study_images/Truth5.pngTruth|study_images/Decoy52.pngDecoy2|study_images/Decoy51.pngDecoy1|study_images/Lure5.pngLure,Choose a map.,Lure,Mon Aug 30 2021 09:12:44 GMT+0200 (Central European Summer Time),1630307564175,4.21725,teammate_block_practice,3
3205,,4309,28,,teammate,,1630307817210,A teammate has left you this evidence:,study_images/Helpful4.png,284,female,,study_images/Truth4.pngTruth|study_images/Lure4.pngLure|study_images/Decoy41.pngDecoy1|study_images/Decoy42.pngDecoy2,Choose a map.,Truth,Mon Aug 30 2021 09:12:44 GMT+0200 (Central European Summer Time),1630307564175,4.21725,teammate_block_practice,4
3205,,11154,28,,teammate,,1630307817210,A teammate has left you this evidence:,study_images/Uninformative2.png,284,female,,study_images/Decoy22.pngDecoy2|study_images/Decoy21.pngDecoy1|study_images/Lure2.pngLure|study_images/Truth2.pngTruth,Choose a map.,Decoy2,Mon Aug 30 2021 09:12:44 GMT+0200 (Central European Summer Time),1630307564175,4.21725,teammate_block_main,1
3205,,4865,28,,teammate,,1630307817210,A teammate has left you this evidence:,study_images/Uninformative4.png,284,female,,study_images/Decoy42.pngDecoy2|study_images/Lure4.pngLure|study_images/Decoy41.pngDecoy1|study_images/Truth4.pngTruth,Choose a map.,Lure,Mon Aug 30 2021 09:12:44 GMT+0200 (Central European Summer Time),1630307564175,4.21725,teammate_block_main,2
3205,,3003,28,,teammate,,1630307817210,A teammate has left you this evidence:,study_images/Misleading2_25.png,284,female,,study_images/Lure2.pngLure|study_images/Decoy22.pngDecoy2|study_images/Decoy21.pngDecoy1|study_images/Truth2.pngTruth,Choose a map.,Decoy2,Mon Aug 30 2021 09:12:44 GMT+0200 (Central European Summer Time),1630307564175,4.21725,teammate_block_main,3
3205,,5140,28,,teammate,,1630307817210,A teammate has left you this evidence:,study_images/Uninformative3.png,284,female,,study_images/Truth3.pngTruth|study_images/Lure3.pngLure|study_images/Decoy32.pngDecoy2|study_images/Decoy31.pngDecoy1,Choose a map.,Decoy2,Mon Aug 30 2021 09:12:44 GMT+0200 (Central European Summer Time),1630307564175,4.21725,teammate_block_main,4
3205,,2538,28,,teammate,,1630307817210,A teammate has left you this evidence:,study_images/Misleading5_50.png,284,female,,study_images/Truth5.pngTruth|study_images/Lure5.pngLure|study_images/Decoy51.pngDecoy1|study_images/Decoy52.pngDecoy2,Choose a map.,Lure,Mon Aug 30 2021 09:12:44 GMT+0200 (Central European Summer Time),1630307564175,4.21725,teammate_block_main,5
3205,,2070,28,,teammate,,1630307817210,A teammate has left you this evidence:,study_images/Misleading1_50.png,284,female,,study_images/Truth1.pngTruth|study_images/Lure1.pngLure|study_images/Decoy12.pngDecoy2|study_images/Decoy11.pngDecoy1,Choose a map.,Lure,Mon Aug 30 2021 09:12:44 GMT+0200 (Central European Summer Time),1630307564175,4.21725,teammate_block_main,6
3205,,2228,28,,teammate,,1630307817210,A teammate has left you this evidence:,study_images/Helpful1.png,284,female,,study_images/Decoy11.pngDecoy1|study_images/Decoy12.pngDecoy2|study_images/Lure1.pngLure|study_images/Truth1.pngTruth,Choose a map.,Truth,Mon Aug 30 2021 09:12:44 GMT+0200 (Central European Summer Time),1630307564175,4.21725,teammate_block_main,7
3205,,3907,28,,teammate,,1630307817210,A teammate has left you this evidence:,study_images/Helpful3.png,284,female,,study_images/Decoy32.pngDecoy2|study_images/Lure3.pngLure|study_images/Truth3.pngTruth|study_images/Decoy31.pngDecoy1,Choose a map.,Truth,Mon Aug 30 2021 09:12:44 GMT+0200 (Central European Summer Time),1630307564175,4.21725,teammate_block_main,8
3205,,2022,28,,teammate,,1630307817210,A teammate has left you this evidence:,study_images/Uninformative1.png,284,female,,study_images/Decoy11.pngDecoy1|study_images/Lure1.pngLure|study_images/Truth1.pngTruth|study_images/Decoy12.pngDecoy2,Choose a map.,Decoy1,Mon Aug 30 2021 09:12:44 GMT+0200 (Central European Summer Time),1630307564175,4.21725,teammate_block_main,9
3205,,15213,28,,teammate,,1630307817210,A teammate has left you this evidence:,study_images/Helpful2.png,284,female,,study_images/Decoy22.pngDecoy2|study_images/Truth2.pngTruth|study_images/Lure2.pngLure|study_images/Decoy21.pngDecoy1,Choose a map.,Truth,Mon Aug 30 2021 09:12:44 GMT+0200 (Central European Summer Time),1630307564175,4.21725,teammate_block_main,10
3205,,2136,28,,teammate,,1630307817210,A teammate has left you this evidence:,study_images/Misleading3_25.png,284,female,,study_images/Decoy32.pngDecoy2|study_images/Lure3.pngLure|study_images/Truth3.pngTruth|study_images/Decoy31.pngDecoy1,Choose a map.,Lure,Mon Aug 30 2021 09:12:44 GMT+0200 (Central European Summer Time),1630307564175,4.21725,teammate_block_main,11
3205,,2376,28,,teammate,,1630307817210,A teammate has left you this evidence:,study_images/Helpful6.png,284,female,,study_images/Lure6.pngLure|study_images/Truth6.pngTruth|study_images/Decoy62.pngDecoy2|study_images/Decoy61.pngDecoy1,Choose a map.,Truth,Mon Aug 30 2021 09:12:44 GMT+0200 (Central European Summer Time),1630307564175,4.21725,teammate_block_main,12
3205,,2017,28,,teammate,,1630307817210,A teammate has left you this evidence:,study_images/Uninformative5.png,284,female,,study_images/Decoy51.pngDecoy1|study_images/Truth5.pngTruth|study_images/Decoy52.pngDecoy2|study_images/Lure5.pngLure,Choose a map.,Lure,Mon Aug 30 2021 09:12:44 GMT+0200 (Central European Summer Time),1630307564175,4.21725,teammate_block_main,13
3205,,2481,28,,teammate,,1630307817210,A teammate has left you this evidence:,study_images/Uninformative6.png,284,female,,study_images/Truth6.pngTruth|study_images/Decoy61.pngDecoy1|study_images/Lure6.pngLure|study_images/Decoy62.pngDecoy2,Choose a map.,Lure,Mon Aug 30 2021 09:12:44 GMT+0200 (Central European Summer Time),1630307564175,4.21725,teammate_block_main,14
3205,,5997,28,,teammate,,1630307817210,A teammate has left you this evidence:,study_images/Helpful5.png,284,female,,study_images/Truth5.pngTruth|study_images/Decoy52.pngDecoy2|study_images/Lure5.pngLure|study_images/Decoy51.pngDecoy1,Choose a map.,Truth,Mon Aug 30 2021 09:12:44 GMT+0200 (Central European Summer Time),1630307564175,4.21725,teammate_block_main,15
3205,,2148,28,,teammate,,1630307817210,A teammate has left you this evidence:,study_images/Misleading6_0.png,284,female,,study_images/Truth6.pngTruth|study_images/Decoy61.pngDecoy1|study_images/Lure6.pngLure|study_images/Decoy62.pngDecoy2,Choose a map.,Lure,Mon Aug 30 2021 09:12:44 GMT+0200 (Central European Summer Time),1630307564175,4.21725,teammate_block_main,16
3205,,2060,28,,teammate,,1630307817210,A teammate has left you this evidence:,study_images/Helpful4.png,284,female,,study_images/Lure4.pngLure|study_images/Decoy41.pngDecoy1|study_images/Truth4.pngTruth|study_images/Decoy42.pngDecoy2,Choose a map.,Truth,Mon Aug 30 2021 09:12:44 GMT+0200 (Central European Summer Time),1630307564175,4.21725,teammate_block_main,17
3205,,3740,28,,teammate,,1630307817210,A teammate has left you this evidence:,study_images/Misleading4_0.png,284,female,,study_images/Decoy41.pngDecoy1|study_images/Truth4.pngTruth|study_images/Lure4.pngLure|study_images/Decoy42.pngDecoy2,Choose a map.,Lure,Mon Aug 30 2021 09:12:44 GMT+0200 (Central European Summer Time),1630307564175,4.21725,teammate_block_main,18
3205,,5311,28,,opponent,,1630307817210,An opponent has left you this evidence:,study_images/Misleading6_0.png,284,female,,study_images/Decoy61.pngDecoy1|study_images/Truth6.pngTruth|study_images/Decoy62.pngDecoy2|study_images/Lure6.pngLure,Choose a map.,Lure,Mon Aug 30 2021 09:12:44 GMT+0200 (Central European Summer Time),1630307564175,4.21725,opponent_block_main,1
3205,,9565,28,,opponent,,1630307817210,An opponent has left you this evidence:,study_images/Helpful3.png,284,female,,study_images/Decoy32.pngDecoy2|study_images/Truth3.pngTruth|study_images/Lure3.pngLure|study_images/Decoy31.pngDecoy1,Choose a map.,Truth,Mon Aug 30 2021 09:12:44 GMT+0200 (Central European Summer Time),1630307564175,4.21725,opponent_block_main,2
3205,,2527,28,,opponent,,1630307817210,An opponent has left you this evidence:,study_images/Misleading5_50.png,284,female,,study_images/Decoy51.pngDecoy1|study_images/Truth5.pngTruth|study_images/Decoy52.pngDecoy2|study_images/Lure5.pngLure,Choose a map.,Lure,Mon Aug 30 2021 09:12:44 GMT+0200 (Central European Summer Time),1630307564175,4.21725,opponent_block_main,3
3205,,3975,28,,opponent,,1630307817210,An opponent has left you this evidence:,study_images/Helpful2.png,284,female,,study_images/Lure2.pngLure|study_images/Truth2.pngTruth|study_images/Decoy21.pngDecoy1|study_images/Decoy22.pngDecoy2,Choose a map.,Truth,Mon Aug 30 2021 09:12:44 GMT+0200 (Central European Summer Time),1630307564175,4.21725,opponent_block_main,4
3205,,2071,28,,opponent,,1630307817210,An opponent has left you this evidence:,study_images/Helpful1.png,284,female,,study_images/Lure1.pngLure|study_images/Decoy11.pngDecoy1|study_images/Truth1.pngTruth|study_images/Decoy12.pngDecoy2,Choose a map.,Truth,Mon Aug 30 2021 09:12:44 GMT+0200 (Central European Summer Time),1630307564175,4.21725,opponent_block_main,5
3205,,6407,28,,opponent,,1630307817210,An opponent has left you this evidence:,study_images/Uninformative2.png,284,female,,study_images/Truth2.pngTruth|study_images/Lure2.pngLure|study_images/Decoy22.pngDecoy2|study_images/Decoy21.pngDecoy1,Choose a map.,Decoy2,Mon Aug 30 2021 09:12:44 GMT+0200 (Central European Summer Time),1630307564175,4.21725,opponent_block_main,6
3205,,2086,28,,opponent,,1630307817210,An opponent has left you this evidence:,study_images/Helpful6.png,284,female,,study_images/Decoy62.pngDecoy2|study_images/Truth6.pngTruth|study_images/Lure6.pngLure|study_images/Decoy61.pngDecoy1,Choose a map.,Truth,Mon Aug 30 2021 09:12:44 GMT+0200 (Central European Summer Time),1630307564175,4.21725,opponent_block_main,7
3205,,4635,28,,opponent,,1630307817210,An opponent has left you this evidence:,study_images/Uninformative1.png,284,female,,study_images/Truth1.pngTruth|study_images/Decoy11.pngDecoy1|study_images/Lure1.pngLure|study_images/Decoy12.pngDecoy2,Choose a map.,Decoy1,Mon Aug 30 2021 09:12:44 GMT+0200 (Central European Summer Time),1630307564175,4.21725,opponent_block_main,8
3205,,8281,28,,opponent,,1630307817210,An opponent has left you this evidence:,study_images/Misleading4_0.png,284,female,,study_images/Lure4.pngLure|study_images/Truth4.pngTruth|study_images/Decoy41.pngDecoy1|study_images/Decoy42.pngDecoy2,Choose a map.,Lure,Mon Aug 30 2021 09:12:44 GMT+0200 (Central European Summer Time),1630307564175,4.21725,opponent_block_main,9
3205,,11113,28,,opponent,,1630307817210,An opponent has left you this evidence:,study_images/Uninformative4.png,284,female,,study_images/Lure4.pngLure|study_images/Decoy41.pngDecoy1|study_images/Decoy42.pngDecoy2|study_images/Truth4.pngTruth,Choose a map.,Lure,Mon Aug 30 2021 09:12:44 GMT+0200 (Central European Summer Time),1630307564175,4.21725,opponent_block_main,10
3205,,2369,28,,opponent,,1630307817210,An opponent has left you this evidence:,study_images/Uninformative6.png,284,female,,study_images/Truth6.pngTruth|study_images/Lure6.pngLure|study_images/Decoy61.pngDecoy1|study_images/Decoy62.pngDecoy2,Choose a map.,Lure,Mon Aug 30 2021 09:12:44 GMT+0200 (Central European Summer Time),1630307564175,4.21725,opponent_block_main,11
3205,,1867,28,,opponent,,1630307817210,An opponent has left you this evidence:,study_images/Uninformative5.png,284,female,,study_images/Truth5.pngTruth|study_images/Decoy51.pngDecoy1|study_images/Decoy52.pngDecoy2|study_images/Lure5.pngLure,Choose a map.,Lure,Mon Aug 30 2021 09:12:44 GMT+0200 (Central European Summer Time),1630307564175,4.21725,opponent_block_main,12
3205,,7555,28,,opponent,,1630307817210,An opponent has left you this evidence:,study_images/Misleading1_50.png,284,female,,study_images/Lure1.pngLure|study_images/Decoy11.pngDecoy1|study_images/Truth1.pngTruth|study_images/Decoy12.pngDecoy2,Choose a map.,Lure,Mon Aug 30 2021 09:12:44 GMT+0200 (Central European Summer Time),1630307564175,4.21725,opponent_block_main,13
3205,,6126,28,,opponent,,1630307817210,An opponent has left you this evidence:,study_images/Misleading2_25.png,284,female,,study_images/Decoy22.pngDecoy2|study_images/Lure2.pngLure|study_images/Truth2.pngTruth|study_images/Decoy21.pngDecoy1,Choose a map.,Lure,Mon Aug 30 2021 09:12:44 GMT+0200 (Central European Summer Time),1630307564175,4.21725,opponent_block_main,14
3205,,10857,28,,opponent,,1630307817210,An opponent has left you this evidence:,study_images/Misleading3_25.png,284,female,,study_images/Truth3.pngTruth|study_images/Decoy31.pngDecoy1|study_images/Decoy32.pngDecoy2|study_images/Lure3.pngLure,Choose a map.,Truth,Mon Aug 30 2021 09:12:44 GMT+0200 (Central European Summer Time),1630307564175,4.21725,opponent_block_main,15
3205,,3248,28,,opponent,,1630307817210,An opponent has left you this evidence:,study_images/Helpful4.png,284,female,,study_images/Decoy42.pngDecoy2|study_images/Lure4.pngLure|study_images/Truth4.pngTruth|study_images/Decoy41.pngDecoy1,Choose a map.,Truth,Mon Aug 30 2021 09:12:44 GMT+0200 (Central European Summer Time),1630307564175,4.21725,opponent_block_main,16
3205,,8202,28,,opponent,,1630307817210,An opponent has left you this evidence:,study_images/Uninformative3.png,284,female,,study_images/Truth3.pngTruth|study_images/Lure3.pngLure|study_images/Decoy32.pngDecoy2|study_images/Decoy31.pngDecoy1,Choose a map.,Truth,Mon Aug 30 2021 09:12:44 GMT+0200 (Central European Summer Time),1630307564175,4.21725,opponent_block_main,17
3205,,2364,28,,opponent,,1630307817210,An opponent has left you this evidence:,study_images/Helpful5.png,284,female,,study_images/Truth5.pngTruth|study_images/Decoy51.pngDecoy1|study_images/Lure5.pngLure|study_images/Decoy52.pngDecoy2,Choose a map.,Truth,Mon Aug 30 2021 09:12:44 GMT+0200 (Central European Summer Time),1630307564175,4.21725,opponent_block_main,18
3204,,3598,27,,opponent,,1630307444251,An opponent has left you this evidence:,study_images/Uninformative6.png,284,female,,study_images/Lure6.pngLure|study_images/Decoy62.pngDecoy2|study_images/Decoy61.pngDecoy1|study_images/Truth6.pngTruth,Choose a map.,Lure,Mon Aug 30 2021 09:07:00 GMT+0200 (Central European Summer Time),1630307220552,3.7283166666666667,opponent_block_practice,1
3204,,12105,27,,opponent,,1630307444251,An opponent has left you this evidence:,study_images/Misleading2_25.png,284,female,,study_images/Decoy21.pngDecoy1|study_images/Truth2.pngTruth|study_images/Decoy22.pngDecoy2|study_images/Lure2.pngLure,Choose a map.,Lure,Mon Aug 30 2021 09:07:00 GMT+0200 (Central European Summer Time),1630307220552,3.7283166666666667,opponent_block_practice,2
3204,,1959,27,,opponent,,1630307444251,An opponent has left you this evidence:,study_images/Helpful1.png,284,female,,study_images/Decoy11.pngDecoy1|study_images/Truth1.pngTruth|study_images/Decoy12.pngDecoy2|study_images/Lure1.pngLure,Choose a map.,Truth,Mon Aug 30 2021 09:07:00 GMT+0200 (Central European Summer Time),1630307220552,3.7283166666666667,opponent_block_practice,3
3204,,5672,27,,opponent,,1630307444251,An opponent has left you this evidence:,study_images/Uninformative4.png,284,female,,study_images/Truth4.pngTruth|study_images/Decoy41.pngDecoy1|study_images/Decoy42.pngDecoy2|study_images/Lure4.pngLure,Choose a map.,Lure,Mon Aug 30 2021 09:07:00 GMT+0200 (Central European Summer Time),1630307220552,3.7283166666666667,opponent_block_practice,4
3204,,12678,27,,teammate,,1630307444251,A teammate has left you this evidence:,study_images/Uninformative5.png,284,female,,study_images/Decoy52.pngDecoy2|study_images/Decoy51.pngDecoy1|study_images/Truth5.pngTruth|study_images/Lure5.pngLure,Choose a map.,Lure,Mon Aug 30 2021 09:07:00 GMT+0200 (Central European Summer Time),1630307220552,3.7283166666666667,teammate_block_practice,1
3204,,2666,27,,teammate,,1630307444251,A teammate has left you this evidence:,study_images/Helpful3.png,284,female,,study_images/Decoy32.pngDecoy2|study_images/Truth3.pngTruth|study_images/Lure3.pngLure|study_images/Decoy31.pngDecoy1,Choose a map.,Truth,Mon Aug 30 2021 09:07:00 GMT+0200 (Central European Summer Time),1630307220552,3.7283166666666667,teammate_block_practice,2
3204,,1918,27,,teammate,,1630307444251,A teammate has left you this evidence:,study_images/Helpful4.png,284,female,,study_images/Decoy41.pngDecoy1|study_images/Lure4.pngLure|study_images/Truth4.pngTruth|study_images/Decoy42.pngDecoy2,Choose a map.,Truth,Mon Aug 30 2021 09:07:00 GMT+0200 (Central European Summer Time),1630307220552,3.7283166666666667,teammate_block_practice,3
3204,,8979,27,,teammate,,1630307444251,A teammate has left you this evidence:,study_images/Misleading4_0.png,284,female,,study_images/Decoy41.pngDecoy1|study_images/Truth4.pngTruth|study_images/Lure4.pngLure|study_images/Decoy42.pngDecoy2,Choose a map.,Lure,Mon Aug 30 2021 09:07:00 GMT+0200 (Central European Summer Time),1630307220552,3.7283166666666667,teammate_block_practice,4
3204,,5302,27,,teammate,,1630307444251,A teammate has left you this evidence:,study_images/Misleading3_25.png,284,female,,study_images/Decoy31.pngDecoy1|study_images/Truth3.pngTruth|study_images/Decoy32.pngDecoy2|study_images/Lure3.pngLure,Choose a map.,Lure,Mon Aug 30 2021 09:07:00 GMT+0200 (Central European Summer Time),1630307220552,3.7283166666666667,teammate_block_main,1
3204,,2030,27,,teammate,,1630307444251,A teammate has left you this evidence:,study_images/Misleading6_0.png,284,female,,study_images/Truth6.pngTruth|study_images/Decoy61.pngDecoy1|study_images/Lure6.pngLure|study_images/Decoy62.pngDecoy2,Choose a map.,Lure,Mon Aug 30 2021 09:07:00 GMT+0200 (Central European Summer Time),1630307220552,3.7283166666666667,teammate_block_main,2
3204,,4384,27,,teammate,,1630307444251,A teammate has left you this evidence:,study_images/Uninformative4.png,284,female,,study_images/Lure4.pngLure|study_images/Truth4.pngTruth|study_images/Decoy41.pngDecoy1|study_images/Decoy42.pngDecoy2,Choose a map.,Truth,Mon Aug 30 2021 09:07:00 GMT+0200 (Central European Summer Time),1630307220552,3.7283166666666667,teammate_block_main,3
3204,,4475,27,,teammate,,1630307444251,A teammate has left you this evidence:,study_images/Uninformative5.png,284,female,,study_images/Decoy52.pngDecoy2|study_images/Lure5.pngLure|study_images/Decoy51.pngDecoy1|study_images/Truth5.pngTruth,Choose a map.,Lure,Mon Aug 30 2021 09:07:00 GMT+0200 (Central European Summer Time),1630307220552,3.7283166666666667,teammate_block_main,4
3204,,3316,27,,teammate,,1630307444251,A teammate has left you this evidence:,study_images/Uninformative2.png,284,female,,study_images/Truth2.pngTruth|study_images/Decoy21.pngDecoy1|study_images/Lure2.pngLure|study_images/Decoy22.pngDecoy2,Choose a map.,Decoy2,Mon Aug 30 2021 09:07:00 GMT+0200 (Central European Summer Time),1630307220552,3.7283166666666667,teammate_block_main,5
3204,,2346,27,,teammate,,1630307444251,A teammate has left you this evidence:,study_images/Helpful4.png,284,female,,study_images/Truth4.pngTruth|study_images/Decoy41.pngDecoy1|study_images/Decoy42.pngDecoy2|study_images/Lure4.pngLure,Choose a map.,Truth,Mon Aug 30 2021 09:07:00 GMT+0200 (Central European Summer Time),1630307220552,3.7283166666666667,teammate_block_main,6
3204,,4442,27,,teammate,,1630307444251,A teammate has left you this evidence:,study_images/Uninformative3.png,284,female,,study_images/Lure3.pngLure|study_images/Decoy31.pngDecoy1|study_images/Truth3.pngTruth|study_images/Decoy32.pngDecoy2,Choose a map.,Truth,Mon Aug 30 2021 09:07:00 GMT+0200 (Central European Summer Time),1630307220552,3.7283166666666667,teammate_block_main,7
3204,,2177,27,,teammate,,1630307444251,A teammate has left you this evidence:,study_images/Misleading2_25.png,284,female,,study_images/Truth2.pngTruth|study_images/Lure2.pngLure|study_images/Decoy22.pngDecoy2|study_images/Decoy21.pngDecoy1,Choose a map.,Lure,Mon Aug 30 2021 09:07:00 GMT+0200 (Central European Summer Time),1630307220552,3.7283166666666667,teammate_block_main,8
3204,,1820,27,,teammate,,1630307444251,A teammate has left you this evidence:,study_images/Misleading5_50.png,284,female,,study_images/Truth5.pngTruth|study_images/Decoy51.pngDecoy1|study_images/Lure5.pngLure|study_images/Decoy52.pngDecoy2,Choose a map.,Lure,Mon Aug 30 2021 09:07:00 GMT+0200 (Central European Summer Time),1630307220552,3.7283166666666667,teammate_block_main,9
3204,,3481,27,,teammate,,1630307444251,A teammate has left you this evidence:,study_images/Helpful3.png,284,female,,study_images/Decoy32.pngDecoy2|study_images/Lure3.pngLure|study_images/Decoy31.pngDecoy1|study_images/Truth3.pngTruth,Choose a map.,Truth,Mon Aug 30 2021 09:07:00 GMT+0200 (Central European Summer Time),1630307220552,3.7283166666666667,teammate_block_main,10
3204,,1611,27,,teammate,,1630307444251,A teammate has left you this evidence:,study_images/Helpful1.png,284,female,,study_images/Truth1.pngTruth|study_images/Lure1.pngLure|study_images/Decoy12.pngDecoy2|study_images/Decoy11.pngDecoy1,Choose a map.,Truth,Mon Aug 30 2021 09:07:00 GMT+0200 (Central European Summer Time),1630307220552,3.7283166666666667,teammate_block_main,11
3204,,7583,27,,teammate,,1630307444251,A teammate has left you this evidence:,study_images/Uninformative6.png,284,female,,study_images/Decoy61.pngDecoy1|study_images/Truth6.pngTruth|study_images/Decoy62.pngDecoy2|study_images/Lure6.pngLure,Choose a map.,Lure,Mon Aug 30 2021 09:07:00 GMT+0200 (Central European Summer Time),1630307220552,3.7283166666666667,teammate_block_main,12
3204,,1621,27,,teammate,,1630307444251,A teammate has left you this evidence:,study_images/Misleading1_50.png,284,female,,study_images/Truth1.pngTruth|study_images/Lure1.pngLure|study_images/Decoy12.pngDecoy2|study_images/Decoy11.pngDecoy1,Choose a map.,Lure,Mon Aug 30 2021 09:07:00 GMT+0200 (Central European Summer Time),1630307220552,3.7283166666666667,teammate_block_main,13
3204,,8619,27,,teammate,,1630307444251,A teammate has left you this evidence:,study_images/Helpful2.png,284,female,,study_images/Decoy22.pngDecoy2|study_images/Decoy21.pngDecoy1|study_images/Truth2.pngTruth|study_images/Lure2.pngLure,Choose a map.,Truth,Mon Aug 30 2021 09:07:00 GMT+0200 (Central European Summer Time),1630307220552,3.7283166666666667,teammate_block_main,14
3204,,2640,27,,teammate,,1630307444251,A teammate has left you this evidence:,study_images/Helpful6.png,284,female,,study_images/Decoy61.pngDecoy1|study_images/Truth6.pngTruth|study_images/Decoy62.pngDecoy2|study_images/Lure6.pngLure,Choose a map.,Truth,Mon Aug 30 2021 09:07:00 GMT+0200 (Central European Summer Time),1630307220552,3.7283166666666667,teammate_block_main,15
3204,,3110,27,,teammate,,1630307444251,A teammate has left you this evidence:,study_images/Misleading4_0.png,284,female,,study_images/Lure4.pngLure|study_images/Decoy41.pngDecoy1|study_images/Truth4.pngTruth|study_images/Decoy42.pngDecoy2,Choose a map.,Lure,Mon Aug 30 2021 09:07:00 GMT+0200 (Central European Summer Time),1630307220552,3.7283166666666667,teammate_block_main,16
3204,,2667,27,,teammate,,1630307444251,A teammate has left you this evidence:,study_images/Uninformative1.png,284,female,,study_images/Lure1.pngLure|study_images/Decoy11.pngDecoy1|study_images/Truth1.pngTruth|study_images/Decoy12.pngDecoy2,Choose a map.,Decoy1,Mon Aug 30 2021 09:07:00 GMT+0200 (Central European Summer Time),1630307220552,3.7283166666666667,teammate_block_main,17
3204,,1794,27,,teammate,,1630307444251,A teammate has left you this evidence:,study_images/Helpful5.png,284,female,,study_images/Lure5.pngLure|study_images/Truth5.pngTruth|study_images/Decoy51.pngDecoy1|study_images/Decoy52.pngDecoy2,Choose a map.,Truth,Mon Aug 30 2021 09:07:00 GMT+0200 (Central European Summer Time),1630307220552,3.7283166666666667,teammate_block_main,18
3204,,4881,27,,opponent,,1630307444251,An opponent has left you this evidence:,study_images/Helpful3.png,284,female,,study_images/Lure3.pngLure|study_images/Truth3.pngTruth|study_images/Decoy32.pngDecoy2|study_images/Decoy31.pngDecoy1,Choose a map.,Truth,Mon Aug 30 2021 09:07:00 GMT+0200 (Central European Summer Time),1630307220552,3.7283166666666667,opponent_block_main,1
3204,,1515,27,,opponent,,1630307444251,An opponent has left you this evidence:,study_images/Helpful6.png,284,female,,study_images/Decoy61.pngDecoy1|study_images/Decoy62.pngDecoy2|study_images/Truth6.pngTruth|study_images/Lure6.pngLure,Choose a map.,Truth,Mon Aug 30 2021 09:07:00 GMT+0200 (Central European Summer Time),1630307220552,3.7283166666666667,opponent_block_main,2
3204,,1906,27,,opponent,,1630307444251,An opponent has left you this evidence:,study_images/Misleading5_50.png,284,female,,study_images/Lure5.pngLure|study_images/Decoy52.pngDecoy2|study_images/Truth5.pngTruth|study_images/Decoy51.pngDecoy1,Choose a map.,Lure,Mon Aug 30 2021 09:07:00 GMT+0200 (Central European Summer Time),1630307220552,3.7283166666666667,opponent_block_main,3
3204,,6373,27,,opponent,,1630307444251,An opponent has left you this evidence:,study_images/Helpful2.png,284,female,,study_images/Decoy22.pngDecoy2|study_images/Truth2.pngTruth|study_images/Decoy21.pngDecoy1|study_images/Lure2.pngLure,Choose a map.,Truth,Mon Aug 30 2021 09:07:00 GMT+0200 (Central European Summer Time),1630307220552,3.7283166666666667,opponent_block_main,4
3204,,2495,27,,opponent,,1630307444251,An opponent has left you this evidence:,study_images/Helpful4.png,284,female,,study_images/Lure4.pngLure|study_images/Decoy42.pngDecoy2|study_images/Truth4.pngTruth|study_images/Decoy41.pngDecoy1,Choose a map.,Truth,Mon Aug 30 2021 09:07:00 GMT+0200 (Central European Summer Time),1630307220552,3.7283166666666667,opponent_block_main,5
3204,,5035,27,,opponent,,1630307444251,An opponent has left you this evidence:,study_images/Misleading6_0.png,284,female,,study_images/Decoy62.pngDecoy2|study_images/Truth6.pngTruth|study_images/Decoy61.pngDecoy1|study_images/Lure6.pngLure,Choose a map.,Lure,Mon Aug 30 2021 09:07:00 GMT+0200 (Central European Summer Time),1630307220552,3.7283166666666667,opponent_block_main,6
3204,,4677,27,,opponent,,1630307444251,An opponent has left you this evidence:,study_images/Uninformative3.png,284,female,,study_images/Truth3.pngTruth|study_images/Decoy31.pngDecoy1|study_images/Decoy32.pngDecoy2|study_images/Lure3.pngLure,Choose a map.,Decoy2,Mon Aug 30 2021 09:07:00 GMT+0200 (Central European Summer Time),1630307220552,3.7283166666666667,opponent_block_main,7
3204,,4626,27,,opponent,,1630307444251,An opponent has left you this evidence:,study_images/Uninformative2.png,284,female,,study_images/Decoy22.pngDecoy2|study_images/Lure2.pngLure|study_images/Truth2.pngTruth|study_images/Decoy21.pngDecoy1,Choose a map.,Decoy2,Mon Aug 30 2021 09:07:00 GMT+0200 (Central European Summer Time),1630307220552,3.7283166666666667,opponent_block_main,8
3204,,2136,27,,opponent,,1630307444251,An opponent has left you this evidence:,study_images/Misleading3_25.png,284,female,,study_images/Decoy32.pngDecoy2|study_images/Decoy31.pngDecoy1|study_images/Lure3.pngLure|study_images/Truth3.pngTruth,Choose a map.,Lure,Mon Aug 30 2021 09:07:00 GMT+0200 (Central European Summer Time),1630307220552,3.7283166666666667,opponent_block_main,9
3204,,2729,27,,opponent,,1630307444251,An opponent has left you this evidence:,study_images/Misleading4_0.png,284,female,,study_images/Decoy42.pngDecoy2|study_images/Truth4.pngTruth|study_images/Decoy41.pngDecoy1|study_images/Lure4.pngLure,Choose a map.,Lure,Mon Aug 30 2021 09:07:00 GMT+0200 (Central European Summer Time),1630307220552,3.7283166666666667,opponent_block_main,10
3204,,4484,27,,opponent,,1630307444251,An opponent has left you this evidence:,study_images/Uninformative1.png,284,female,,study_images/Decoy11.pngDecoy1|study_images/Decoy12.pngDecoy2|study_images/Lure1.pngLure|study_images/Truth1.pngTruth,Choose a map.,Decoy1,Mon Aug 30 2021 09:07:00 GMT+0200 (Central European Summer Time),1630307220552,3.7283166666666667,opponent_block_main,11
3204,,15330,27,,opponent,,1630307444251,An opponent has left you this evidence:,study_images/Uninformative4.png,284,female,,study_images/Truth4.pngTruth|study_images/Lure4.pngLure|study_images/Decoy42.pngDecoy2|study_images/Decoy41.pngDecoy1,Choose a map.,Truth,Mon Aug 30 2021 09:07:00 GMT+0200 (Central European Summer Time),1630307220552,3.7283166666666667,opponent_block_main,12
3204,,1499,27,,opponent,,1630307444251,An opponent has left you this evidence:,study_images/Misleading1_50.png,284,female,,study_images/Truth1.pngTruth|study_images/Lure1.pngLure|study_images/Decoy12.pngDecoy2|study_images/Decoy11.pngDecoy1,Choose a map.,Lure,Mon Aug 30 2021 09:07:00 GMT+0200 (Central European Summer Time),1630307220552,3.7283166666666667,opponent_block_main,13
3204,,1962,27,,opponent,,1630307444251,An opponent has left you this evidence:,study_images/Helpful1.png,284,female,,study_images/Decoy12.pngDecoy2|study_images/Lure1.pngLure|study_images/Decoy11.pngDecoy1|study_images/Truth1.pngTruth,Choose a map.,Truth,Mon Aug 30 2021 09:07:00 GMT+0200 (Central European Summer Time),1630307220552,3.7283166666666667,opponent_block_main,14
3204,,2043,27,,opponent,,1630307444251,An opponent has left you this evidence:,study_images/Misleading2_25.png,284,female,,study_images/Decoy22.pngDecoy2|study_images/Truth2.pngTruth|study_images/Lure2.pngLure|study_images/Decoy21.pngDecoy1,Choose a map.,Lure,Mon Aug 30 2021 09:07:00 GMT+0200 (Central European Summer Time),1630307220552,3.7283166666666667,opponent_block_main,15
3204,,3023,27,,opponent,,1630307444251,An opponent has left you this evidence:,study_images/Uninformative6.png,284,female,,study_images/Lure6.pngLure|study_images/Decoy61.pngDecoy1|study_images/Decoy62.pngDecoy2|study_images/Truth6.pngTruth,Choose a map.,Lure,Mon Aug 30 2021 09:07:00 GMT+0200 (Central European Summer Time),1630307220552,3.7283166666666667,opponent_block_main,16
3204,,2910,27,,opponent,,1630307444251,An opponent has left you this evidence:,study_images/Uninformative5.png,284,female,,study_images/Decoy52.pngDecoy2|study_images/Lure5.pngLure|study_images/Truth5.pngTruth|study_images/Decoy51.pngDecoy1,Choose a map.,Lure,Mon Aug 30 2021 09:07:00 GMT+0200 (Central European Summer Time),1630307220552,3.7283166666666667,opponent_block_main,17
3204,,1580,27,,opponent,,1630307444251,An opponent has left you this evidence:,study_images/Helpful5.png,284,female,,study_images/Truth5.pngTruth|study_images/Lure5.pngLure|study_images/Decoy51.pngDecoy1|study_images/Decoy52.pngDecoy2,Choose a map.,Truth,Mon Aug 30 2021 09:07:00 GMT+0200 (Central European Summer Time),1630307220552,3.7283166666666667,opponent_block_main,18
3203,,18519,27,,teammate,Graduated High School,1630305541815,A teammate has left you this evidence:,study_images/Misleading4_0.png,284,male,,study_images/Decoy41.pngDecoy1|study_images/Decoy42.pngDecoy2|study_images/Truth4.pngTruth|study_images/Lure4.pngLure,Choose a map.,Lure,Mon Aug 30 2021 08:34:47 GMT+0200 (Central European Summer Time),1630305287667,4.2358,teammate_block_practice,1
3203,,3706,27,,teammate,Graduated High School,1630305541815,A teammate has left you this evidence:,study_images/Helpful4.png,284,male,,study_images/Decoy41.pngDecoy1|study_images/Decoy42.pngDecoy2|study_images/Lure4.pngLure|study_images/Truth4.pngTruth,Choose a map.,Truth,Mon Aug 30 2021 08:34:47 GMT+0200 (Central European Summer Time),1630305287667,4.2358,teammate_block_practice,2
3203,,9782,27,,teammate,Graduated High School,1630305541815,A teammate has left you this evidence:,study_images/Uninformative5.png,284,male,,study_images/Decoy52.pngDecoy2|study_images/Lure5.pngLure|study_images/Truth5.pngTruth|study_images/Decoy51.pngDecoy1,Choose a map.,Decoy1,Mon Aug 30 2021 08:34:47 GMT+0200 (Central European Summer Time),1630305287667,4.2358,teammate_block_practice,3
3203,,9571,27,,teammate,Graduated High School,1630305541815,A teammate has left you this evidence:,study_images/Helpful3.png,284,male,,study_images/Lure3.pngLure|study_images/Decoy31.pngDecoy1|study_images/Truth3.pngTruth|study_images/Decoy32.pngDecoy2,Choose a map.,Truth,Mon Aug 30 2021 08:34:47 GMT+0200 (Central European Summer Time),1630305287667,4.2358,teammate_block_practice,4
3203,,3153,27,,opponent,Graduated High School,1630305541815,An opponent has left you this evidence:,study_images/Misleading2_25.png,284,male,,study_images/Decoy22.pngDecoy2|study_images/Decoy21.pngDecoy1|study_images/Truth2.pngTruth|study_images/Lure2.pngLure,Choose a map.,Lure,Mon Aug 30 2021 08:34:47 GMT+0200 (Central European Summer Time),1630305287667,4.2358,opponent_block_practice,1
3203,,1952,27,,opponent,Graduated High School,1630305541815,An opponent has left you this evidence:,study_images/Helpful1.png,284,male,,study_images/Decoy12.pngDecoy2|study_images/Decoy11.pngDecoy1|study_images/Truth1.pngTruth|study_images/Lure1.pngLure,Choose a map.,Truth,Mon Aug 30 2021 08:34:47 GMT+0200 (Central European Summer Time),1630305287667,4.2358,opponent_block_practice,2
3203,,7737,27,,opponent,Graduated High School,1630305541815,An opponent has left you this evidence:,study_images/Uninformative4.png,284,male,,study_images/Lure4.pngLure|study_images/Decoy42.pngDecoy2|study_images/Truth4.pngTruth|study_images/Decoy41.pngDecoy1,Choose a map.,Truth,Mon Aug 30 2021 08:34:47 GMT+0200 (Central European Summer Time),1630305287667,4.2358,opponent_block_practice,3
3203,,8366,27,,opponent,Graduated High School,1630305541815,An opponent has left you this evidence:,study_images/Uninformative6.png,284,male,,study_images/Truth6.pngTruth|study_images/Decoy62.pngDecoy2|study_images/Decoy61.pngDecoy1|study_images/Lure6.pngLure,Choose a map.,Decoy2,Mon Aug 30 2021 08:34:47 GMT+0200 (Central European Summer Time),1630305287667,4.2358,opponent_block_practice,4
3203,,6747,27,,opponent,Graduated High School,1630305541815,An opponent has left you this evidence:,study_images/Uninformative1.png,284,male,,study_images/Lure1.pngLure|study_images/Decoy12.pngDecoy2|study_images/Decoy11.pngDecoy1|study_images/Truth1.pngTruth,Choose a map.,Decoy1,Mon Aug 30 2021 08:34:47 GMT+0200 (Central European Summer Time),1630305287667,4.2358,opponent_block_main,1
3203,,2268,27,,opponent,Graduated High School,1630305541815,An opponent has left you this evidence:,study_images/Misleading5_50.png,284,male,,study_images/Truth5.pngTruth|study_images/Decoy51.pngDecoy1|study_images/Lure5.pngLure|study_images/Decoy52.pngDecoy2,Choose a map.,Lure,Mon Aug 30 2021 08:34:47 GMT+0200 (Central European Summer Time),1630305287667,4.2358,opponent_block_main,2
3203,,2239,27,,opponent,Graduated High School,1630305541815,An opponent has left you this evidence:,study_images/Helpful6.png,284,male,,study_images/Decoy62.pngDecoy2|study_images/Truth6.pngTruth|study_images/Decoy61.pngDecoy1|study_images/Lure6.pngLure,Choose a map.,Truth,Mon Aug 30 2021 08:34:47 GMT+0200 (Central European Summer Time),1630305287667,4.2358,opponent_block_main,3
3203,,2035,27,,opponent,Graduated High School,1630305541815,An opponent has left you this evidence:,study_images/Misleading1_50.png,284,male,,study_images/Decoy12.pngDecoy2|study_images/Decoy11.pngDecoy1|study_images/Lure1.pngLure|study_images/Truth1.pngTruth,Choose a map.,Lure,Mon Aug 30 2021 08:34:47 GMT+0200 (Central European Summer Time),1630305287667,4.2358,opponent_block_main,4
3203,,2212,27,,opponent,Graduated High School,1630305541815,An opponent has left you this evidence:,study_images/Misleading4_0.png,284,male,,study_images/Lure4.pngLure|study_images/Decoy41.pngDecoy1|study_images/Decoy42.pngDecoy2|study_images/Truth4.pngTruth,Choose a map.,Lure,Mon Aug 30 2021 08:34:47 GMT+0200 (Central European Summer Time),1630305287667,4.2358,opponent_block_main,5
3203,,2537,27,,opponent,Graduated High School,1630305541815,An opponent has left you this evidence:,study_images/Helpful4.png,284,male,,study_images/Truth4.pngTruth|study_images/Lure4.pngLure|study_images/Decoy42.pngDecoy2|study_images/Decoy41.pngDecoy1,Choose a map.,Truth,Mon Aug 30 2021 08:34:47 GMT+0200 (Central European Summer Time),1630305287667,4.2358,opponent_block_main,6
3203,,6694,27,,opponent,Graduated High School,1630305541815,An opponent has left you this evidence:,study_images/Helpful5.png,284,male,,study_images/Decoy52.pngDecoy2|study_images/Lure5.pngLure|study_images/Truth5.pngTruth|study_images/Decoy51.pngDecoy1,Choose a map.,Truth,Mon Aug 30 2021 08:34:47 GMT+0200 (Central European Summer Time),1630305287667,4.2358,opponent_block_main,7
3203,,10736,27,,opponent,Graduated High School,1630305541815,An opponent has left you this evidence:,study_images/Uninformative5.png,284,male,,study_images/Truth5.pngTruth|study_images/Lure5.pngLure|study_images/Decoy51.pngDecoy1|study_images/Decoy52.pngDecoy2,Choose a map.,Lure,Mon Aug 30 2021 08:34:47 GMT+0200 (Central European Summer Time),1630305287667,4.2358,opponent_block_main,8
3203,,5274,27,,opponent,Graduated High School,1630305541815,An opponent has left you this evidence:,study_images/Uninformative3.png,284,male,,study_images/Decoy31.pngDecoy1|study_images/Lure3.pngLure|study_images/Decoy32.pngDecoy2|study_images/Truth3.pngTruth,Choose a map.,Decoy2,Mon Aug 30 2021 08:34:47 GMT+0200 (Central European Summer Time),1630305287667,4.2358,opponent_block_main,9
3203,,3872,27,,opponent,Graduated High School,1630305541815,An opponent has left you this evidence:,study_images/Misleading6_0.png,284,male,,study_images/Lure6.pngLure|study_images/Decoy62.pngDecoy2|study_images/Decoy61.pngDecoy1|study_images/Truth6.pngTruth,Choose a map.,Lure,Mon Aug 30 2021 08:34:47 GMT+0200 (Central European Summer Time),1630305287667,4.2358,opponent_block_main,10
3203,,4139,27,,opponent,Graduated High School,1630305541815,An opponent has left you this evidence:,study_images/Helpful2.png,284,male,,study_images/Truth2.pngTruth|study_images/Decoy22.pngDecoy2|study_images/Lure2.pngLure|study_images/Decoy21.pngDecoy1,Choose a map.,Truth,Mon Aug 30 2021 08:34:47 GMT+0200 (Central European Summer Time),1630305287667,4.2358,opponent_block_main,11
3203,,1680,27,,opponent,Graduated High School,1630305541815,An opponent has left you this evidence:,study_images/Helpful1.png,284,male,,study_images/Decoy12.pngDecoy2|study_images/Decoy11.pngDecoy1|study_images/Lure1.pngLure|study_images/Truth1.pngTruth,Choose a map.,Truth,Mon Aug 30 2021 08:34:47 GMT+0200 (Central European Summer Time),1630305287667,4.2358,opponent_block_main,12
3203,,1541,27,,opponent,Graduated High School,1630305541815,An opponent has left you this evidence:,study_images/Misleading2_25.png,284,male,,study_images/Decoy22.pngDecoy2|study_images/Lure2.pngLure|study_images/Decoy21.pngDecoy1|study_images/Truth2.pngTruth,Choose a map.,Lure,Mon Aug 30 2021 08:34:47 GMT+0200 (Central European Summer Time),1630305287667,4.2358,opponent_block_main,13
3203,,3587,27,,opponent,Graduated High School,1630305541815,An opponent has left you this evidence:,study_images/Helpful3.png,284,male,,study_images/Decoy32.pngDecoy2|study_images/Lure3.pngLure|study_images/Truth3.pngTruth|study_images/Decoy31.pngDecoy1,Choose a map.,Truth,Mon Aug 30 2021 08:34:47 GMT+0200 (Central European Summer Time),1630305287667,4.2358,opponent_block_main,14
3203,,16458,27,,opponent,Graduated High School,1630305541815,An opponent has left you this evidence:,study_images/Uninformative4.png,284,male,,study_images/Truth4.pngTruth|study_images/Decoy42.pngDecoy2|study_images/Lure4.pngLure|study_images/Decoy41.pngDecoy1,Choose a map.,Truth,Mon Aug 30 2021 08:34:47 GMT+0200 (Central European Summer Time),1630305287667,4.2358,opponent_block_main,15
3203,,5785,27,,opponent,Graduated High School,1630305541815,An opponent has left you this evidence:,study_images/Uninformative6.png,284,male,,study_images/Truth6.pngTruth|study_images/Decoy61.pngDecoy1|study_images/Decoy62.pngDecoy2|study_images/Lure6.pngLure,Choose a map.,Decoy2,Mon Aug 30 2021 08:34:47 GMT+0200 (Central European Summer Time),1630305287667,4.2358,opponent_block_main,16
3203,,7893,27,,opponent,Graduated High School,1630305541815,An opponent has left you this evidence:,study_images/Uninformative2.png,284,male,,study_images/Decoy21.pngDecoy1|study_images/Decoy22.pngDecoy2|study_images/Lure2.pngLure|study_images/Truth2.pngTruth,Choose a map.,Decoy2,Mon Aug 30 2021 08:34:47 GMT+0200 (Central European Summer Time),1630305287667,4.2358,opponent_block_main,17
3203,,3440,27,,opponent,Graduated High School,1630305541815,An opponent has left you this evidence:,study_images/Misleading3_25.png,284,male,,study_images/Lure3.pngLure|study_images/Decoy31.pngDecoy1|study_images/Decoy32.pngDecoy2|study_images/Truth3.pngTruth,Choose a map.,Lure,Mon Aug 30 2021 08:34:47 GMT+0200 (Central European Summer Time),1630305287667,4.2358,opponent_block_main,18
3203,,5724,27,,teammate,Graduated High School,1630305541815,A teammate has left you this evidence:,study_images/Helpful4.png,284,male,,study_images/Lure4.pngLure|study_images/Decoy41.pngDecoy1|study_images/Truth4.pngTruth|study_images/Decoy42.pngDecoy2,Choose a map.,Truth,Mon Aug 30 2021 08:34:47 GMT+0200 (Central European Summer Time),1630305287667,4.2358,teammate_block_main,1
3203,,8915,27,,teammate,Graduated High School,1630305541815,A teammate has left you this evidence:,study_images/Misleading4_0.png,284,male,,study_images/Decoy42.pngDecoy2|study_images/Decoy41.pngDecoy1|study_images/Lure4.pngLure|study_images/Truth4.pngTruth,Choose a map.,Lure,Mon Aug 30 2021 08:34:47 GMT+0200 (Central European Summer Time),1630305287667,4.2358,teammate_block_main,2
3203,,4581,27,,teammate,Graduated High School,1630305541815,A teammate has left you this evidence:,study_images/Uninformative6.png,284,male,,study_images/Decoy62.pngDecoy2|study_images/Truth6.pngTruth|study_images/Decoy61.pngDecoy1|study_images/Lure6.pngLure,Choose a map.,Lure,Mon Aug 30 2021 08:34:47 GMT+0200 (Central European Summer Time),1630305287667,4.2358,teammate_block_main,3
3203,,15712,27,,teammate,Graduated High School,1630305541815,A teammate has left you this evidence:,study_images/Uninformative2.png,284,male,,study_images/Decoy22.pngDecoy2|study_images/Lure2.pngLure|study_images/Truth2.pngTruth|study_images/Decoy21.pngDecoy1,Choose a map.,Decoy2,Mon Aug 30 2021 08:34:47 GMT+0200 (Central European Summer Time),1630305287667,4.2358,teammate_block_main,4
3203,,3274,27,,teammate,Graduated High School,1630305541815,A teammate has left you this evidence:,study_images/Misleading6_0.png,284,male,,study_images/Lure6.pngLure|study_images/Decoy62.pngDecoy2|study_images/Decoy61.pngDecoy1|study_images/Truth6.pngTruth,Choose a map.,Lure,Mon Aug 30 2021 08:34:47 GMT+0200 (Central European Summer Time),1630305287667,4.2358,teammate_block_main,5
3203,,2717,27,,teammate,Graduated High School,1630305541815,A teammate has left you this evidence:,study_images/Uninformative1.png,284,male,,study_images/Decoy11.pngDecoy1|study_images/Lure1.pngLure|study_images/Decoy12.pngDecoy2|study_images/Truth1.pngTruth,Choose a map.,Decoy1,Mon Aug 30 2021 08:34:47 GMT+0200 (Central European Summer Time),1630305287667,4.2358,teammate_block_main,6
3203,,7641,27,,teammate,Graduated High School,1630305541815,A teammate has left you this evidence:,study_images/Uninformative5.png,284,male,,study_images/Decoy52.pngDecoy2|study_images/Decoy51.pngDecoy1|study_images/Lure5.pngLure|study_images/Truth5.pngTruth,Choose a map.,Decoy1,Mon Aug 30 2021 08:34:47 GMT+0200 (Central European Summer Time),1630305287667,4.2358,teammate_block_main,7
3203,,6814,27,,teammate,Graduated High School,1630305541815,A teammate has left you this evidence:,study_images/Helpful2.png,284,male,,study_images/Lure2.pngLure|study_images/Truth2.pngTruth|study_images/Decoy22.pngDecoy2|study_images/Decoy21.pngDecoy1,Choose a map.,Truth,Mon Aug 30 2021 08:34:47 GMT+0200 (Central European Summer Time),1630305287667,4.2358,teammate_block_main,8
3203,,1711,27,,teammate,Graduated High School,1630305541815,A teammate has left you this evidence:,study_images/Helpful1.png,284,male,,study_images/Decoy11.pngDecoy1|study_images/Lure1.pngLure|study_images/Decoy12.pngDecoy2|study_images/Truth1.pngTruth,Choose a map.,Truth,Mon Aug 30 2021 08:34:47 GMT+0200 (Central European Summer Time),1630305287667,4.2358,teammate_block_main,9
3203,,1757,27,,teammate,Graduated High School,1630305541815,A teammate has left you this evidence:,study_images/Misleading2_25.png,284,male,,study_images/Truth2.pngTruth|study_images/Decoy21.pngDecoy1|study_images/Decoy22.pngDecoy2|study_images/Lure2.pngLure,Choose a map.,Lure,Mon Aug 30 2021 08:34:47 GMT+0200 (Central European Summer Time),1630305287667,4.2358,teammate_block_main,10
3203,,1826,27,,teammate,Graduated High School,1630305541815,A teammate has left you this evidence:,study_images/Misleading5_50.png,284,male,,study_images/Decoy52.pngDecoy2|study_images/Truth5.pngTruth|study_images/Lure5.pngLure|study_images/Decoy51.pngDecoy1,Choose a map.,Lure,Mon Aug 30 2021 08:34:47 GMT+0200 (Central European Summer Time),1630305287667,4.2358,teammate_block_main,11
3203,,1550,27,,teammate,Graduated High School,1630305541815,A teammate has left you this evidence:,study_images/Helpful6.png,284,male,,study_images/Lure6.pngLure|study_images/Decoy61.pngDecoy1|study_images/Truth6.pngTruth|study_images/Decoy62.pngDecoy2,Choose a map.,Truth,Mon Aug 30 2021 08:34:47 GMT+0200 (Central European Summer Time),1630305287667,4.2358,teammate_block_main,12
